Dividing Wavelength (nm)	Counts (n)	Blue Motor Position (mm): 48.300000	Red Motor Position (mm): 0.000000	
326.493990	0.999514
326.888308	0.999514
327.282561	0.999514
327.676750	1.000714
328.070874	0.999669
328.464933	1.000041
328.858929	1.000817
329.252859	1.000336
329.646726	0.999147
330.040528	0.998992
330.434265	1.000720
330.827938	1.000054
331.221547	1.000461
331.615091	1.001132
332.008571	1.001344
332.401986	1.000530
332.795338	1.000842
333.188625	1.000688
333.581847	1.000294
333.975006	0.999496
334.368100	1.000490
334.761129	0.999444
335.154095	1.000383
335.546996	1.001847
335.939833	0.999011
336.332606	0.999497
336.725315	0.999238
337.117960	1.000948
337.510540	0.998734
337.903056	1.000909
338.295508	1.000651
338.687896	0.999598
339.080220	0.999861
339.472480	1.000107
339.864676	1.001594
340.256807	0.999183
340.648875	0.999431
341.040879	1.000766
341.432818	1.001103
341.824694	0.999635
342.216506	1.002209
342.608253	1.000943
342.999937	0.999455
343.391557	1.000157
343.783113	1.001988
344.174605	0.999600
344.566033	0.999710
344.957397	1.000274
345.348697	1.000388
345.739934	1.002041
346.131106	1.000055
346.522215	0.999993
346.913260	1.000514
347.304241	0.999495
347.695159	1.000256
348.086012	0.999716
348.476802	1.000664
348.867528	0.999468
349.258191	1.000632
349.648789	1.000969
350.039324	1.000169
350.429796	1.000210
350.820203	0.999972
351.210548	1.001112
351.600828	1.000322
351.991045	0.999861
352.381198	1.000719
352.771288	1.000228
353.161314	1.001430
353.551276	0.998992
353.941175	0.997501
354.331010	1.000779
354.720782	0.999914
355.110490	1.001288
355.500135	1.000860
355.889717	0.999932
356.279235	0.999958
356.668689	1.000321
357.058080	1.000100
357.447408	1.000166
357.836672	1.000920
358.225873	1.000133
358.615010	1.000809
359.004084	0.999353
359.393095	1.000342
359.782043	1.000023
360.170927	1.000211
360.559748	0.999849
360.948505	0.999320
361.337199	1.000023
361.725830	1.000641
362.114398	1.000140
362.502903	0.998420
362.891344	0.998612
363.279722	1.000063
363.668037	1.000438
364.056289	1.000221
364.444478	1.001423
364.832603	1.000555
365.220665	1.000395
365.608665	0.998692
365.996601	1.000151
366.384474	0.998993
366.772284	0.999582
367.160031	0.998716
367.547715	0.998517
367.935336	0.998427
368.322893	0.996995
368.710388	0.997002
369.097820	0.995357
369.485189	0.994350
369.872495	0.993363
370.259738	0.992090
370.646918	0.991042
371.034035	0.989974
371.421090	0.989844
371.808081	0.987286
372.195010	0.988019
372.581875	0.985840
372.968678	0.982948
373.355418	0.982893
373.742096	0.980165
374.128710	0.980554
374.515262	0.979784
374.901751	0.979505
375.288177	0.978792
375.674540	0.979483
376.060841	0.977902
376.447079	0.976305
376.833254	0.977592
377.219367	0.977881
377.605417	0.976412
377.991404	0.976563
378.377329	0.977752
378.763191	0.977335
379.148991	0.977469
379.534727	0.977168
379.920402	0.979081
380.306013	0.979295
380.691563	0.980702
381.077049	0.980103
381.462474	0.982002
381.847835	0.981293
382.233134	0.982119
382.618371	0.984806
383.003545	0.984817
383.388657	0.986344
383.773706	0.987508
384.158693	0.989192
384.543618	0.990655
384.928480	0.990203
385.313280	0.990764
385.698017	0.991079
386.082692	0.992717
386.467305	0.992568
386.851856	0.995386
387.236344	0.994845
387.620770	0.996441
388.005133	0.996136
388.389435	0.996979
388.773674	0.997288
389.157851	0.997865
389.541965	0.998609
389.926018	0.998982
390.310008	0.999006
390.693936	0.999444
391.077802	1.000373
391.461606	0.998515
391.845348	1.000149
392.229027	0.998153
392.612645	0.999625
392.996200	0.999721
393.379694	0.999580
393.763125	1.000397
394.146494	0.999757
394.529801	1.000167
394.913047	0.998786
395.296230	0.999143
395.679351	0.999317
396.062410	0.999656
396.445408	1.000043
396.828343	1.000869
397.211217	0.999568
397.594028	0.999906
397.976778	1.001415
398.359466	1.000394
398.742092	1.000107
399.124656	1.000190
399.507158	0.999398
399.889598	1.000622
400.271977	1.001582
400.654294	0.999981
401.036549	1.000418
401.418742	1.000962
401.800874	0.999832
402.182944	0.999594
402.564952	0.999205
402.946898	1.000742
403.328783	1.000869
403.710606	0.999775
404.092367	1.000236
404.474067	1.000758
404.855705	1.000670
405.237282	1.000667
405.618797	1.000203
406.000250	0.999914
406.381642	0.999257
406.762972	1.000225
407.144240	1.000725
407.525447	0.999691
407.906593	0.999234
408.287677	1.000392
408.668700	1.000827
409.049661	0.999931
409.430560	1.000264
409.811399	1.000237
410.192176	1.000468
410.572891	1.000592
410.953545	0.999410
411.334138	1.000945
411.714669	1.000428
412.095139	1.000095
412.475547	1.000542
412.855894	1.000278
413.236180	0.999244
413.616405	1.000087
413.996568	1.000215
414.376670	1.000234
414.756711	0.999756
415.136691	1.000450
415.516609	0.999946
415.896466	1.000679
416.276262	0.999896
416.655997	1.000333
417.035670	1.000395
417.415283	0.999987
417.794834	0.999733
418.174324	1.000983
418.553753	1.000404
418.933121	1.000032
419.312428	1.001640
419.691674	1.000652
420.070859	1.000514
420.449983	1.000426
420.829045	1.000162
421.208047	1.001072
421.586988	1.000053
421.965867	1.000345
422.344686	0.999900
422.723444	0.999463
423.102141	1.000855
423.480777	1.000035
423.859352	1.000551
424.237866	1.000748
424.616319	1.000583
424.994712	1.000648
425.373044	1.000378
425.751314	1.000765
426.129524	1.001267
426.507673	1.000002
426.885762	1.000982
427.263789	1.000016
427.641756	1.000070
428.019662	1.000096
428.397508	1.000276
428.775292	0.999384
429.153016	1.000487
429.530679	1.000402
429.908282	1.001358
430.285824	0.999624
430.663305	0.999883
431.040726	1.000616
431.418086	1.000130
431.795385	1.000880
432.172624	1.001755
432.549802	1.000494
432.926920	1.000403
433.303977	1.000866
433.680974	1.000671
434.057910	1.000650
434.434786	0.999421
434.811601	1.001231
435.188355	1.001021
435.565050	0.999987
435.941683	1.000782
436.318257	1.000173
436.694770	0.999913
437.071222	1.001395
437.447614	1.000744
437.823946	1.000829
438.200218	1.000489
438.576429	1.000192
438.952580	1.002057
439.328670	0.999422
439.704700	1.000184
440.080670	1.000437
440.456580	1.000044
440.832429	1.000365
441.208218	1.000616
441.583947	1.000553
441.959616	0.999305
442.335224	1.001496
442.710773	1.001086
443.086261	1.000760
443.461689	1.000011
443.837057	1.000643
444.212365	1.001028
444.587612	1.001141
444.962800	1.000747
445.337927	1.001331
445.712995	1.000881
446.088002	1.000630
446.462949	1.000127
446.837837	1.001618
447.212664	1.000400
447.587431	1.001145
447.962139	1.000674
448.336786	0.999947
448.711374	0.999874
449.085901	1.000453
449.460369	1.001181
449.834776	1.000887
450.209124	1.000294
450.583412	1.000598
450.957640	1.001442
451.331808	1.000381
451.705917	0.999800
452.079965	1.000705
452.453954	1.001233
452.827883	1.000325
453.201752	1.000767
453.575562	1.000004
453.949311	1.000290
454.323001	1.000865
454.696632	1.001128
455.070202	1.000258
455.443713	1.000063
455.817164	1.000448
456.190556	0.999973
456.563888	1.001505
456.937160	1.000769
457.310373	1.000604
457.683526	1.000913
458.056619	1.000426
458.429653	1.000062
458.802628	1.000538
459.175542	1.000865
459.548398	1.001308
459.921194	1.000825
460.293930	1.001887
460.666607	1.000902
461.039224	1.000692
461.411782	1.000145
461.784280	1.000909
462.156719	1.001429
462.529099	1.000562
462.901419	1.000904
463.273680	1.000198
463.645882	1.000400
464.018024	1.001170
464.390106	1.000874
464.762130	1.000646
465.134094	1.001409
465.505999	1.000520
465.877845	1.000835
466.249631	1.000845
466.621358	1.000119
466.993026	1.000836
467.364634	1.000690
467.736184	1.000556
468.107674	1.000672
468.479105	1.000704
468.850477	1.001143
469.221790	1.000968
469.593043	1.000522
469.964238	1.000974
470.335373	1.000199
470.706449	1.000670
471.077467	1.000615
471.448425	1.001252
471.819324	1.001224
472.190164	1.000346
472.560945	1.000228
472.931667	1.000825
473.302330	1.000856
473.672934	1.001211
474.043479	1.000111
474.413965	1.000901
474.784393	1.000638
475.154761	1.000039
475.525070	1.001052
475.895321	1.000928
476.265513	1.001288
476.635645	1.001142
477.005719	1.000877
477.375734	1.000759
477.745691	1.000408
478.115588	1.000043
478.485427	1.000795
478.855207	1.000433
479.224928	1.000704
479.594591	1.000901
479.964194	1.000336
480.333739	1.000374
480.703226	1.000263
481.072653	1.000357
481.442022	1.000691
481.811333	1.000376
482.180584	1.000214
482.549777	1.000601
482.918912	1.000789
483.287988	1.000273
483.657005	1.000276
484.025964	1.000836
484.394864	1.000356
484.763706	1.000212
485.132489	1.000740
485.501213	1.000647
485.869879	1.000383
486.238487	0.999913
486.607036	1.001466
486.975527	1.000627
487.343959	1.000600
487.712333	1.000804
488.080648	1.000049
488.448905	1.000624
488.817104	0.999881
489.185244	1.000718
489.553326	1.000327
489.921350	1.000661
490.289315	1.000332
490.657222	1.000349
491.025070	1.001088
491.392861	1.000875
491.760593	1.000636
492.128267	1.000459
492.495883	0.999469
492.863440	1.000383
493.230939	1.000179
493.598380	1.000927
493.965763	0.999887
494.333088	0.999867
494.700354	0.999955
495.067563	1.000371
495.434713	1.000690
495.801805	1.000610
496.168839	1.000794
496.535815	1.000783
496.902733	1.000239
497.269593	1.000538
497.636395	0.999621
498.003139	1.000177
498.369825	1.001315
498.736453	1.000241
499.103023	1.000984
499.469535	1.000321
499.835989	1.000974
500.202385	1.000430
500.568723	1.000357
500.935003	1.000652
501.301226	1.000381
501.667390	1.000011
502.033497	1.000741
502.399546	1.000544
502.765537	0.999880
503.131470	1.000691
503.497345	1.000718
503.863163	1.000264
504.228923	1.000446
504.594625	0.999951
504.960269	1.001007
505.325856	1.001250
505.691385	1.000450
506.056856	1.000367
506.422270	1.000527
506.787625	1.000548
507.152924	1.000722
507.518164	1.000095
507.883347	1.000163
508.248472	1.000544
508.613540	0.999811
508.978550	0.999998
509.343503	0.999972
509.708398	1.000791
510.073236	1.000595
510.438016	0.999875
510.802738	1.000497
511.167403	1.000060
511.532010	1.000519
511.896561	1.000189
512.261053	1.000623
512.625488	1.000501
512.989866	1.000674
513.354186	1.000076
513.718449	1.000607
514.082655	1.000304
514.446803	1.000430
514.810894	1.000490
515.174927	1.000562
515.538904	1.000695
515.902822	1.000603
516.266684	1.000726
516.630488	1.001359
516.994235	1.000505
517.357925	1.000579
517.721558	1.000606
518.085133	0.999808
518.448651	1.000136
518.812112	1.000467
519.175516	1.000656
519.538863	1.000549
519.902152	1.000595
520.265385	1.000771
520.628560	0.999898
520.991678	1.000013
521.354739	1.001024
521.717743	1.000939
522.080690	1.000125
522.443580	1.000897
522.806413	1.000199
523.169189	1.001363
523.531908	0.999431
523.894569	1.000843
524.257174	1.000177
524.619722	1.000039
524.982213	1.000551
525.344647	1.000386
525.707025	0.999987
526.069345	1.000087
526.431608	1.001309
526.793815	1.001108
527.155964	1.001387
527.518057	1.001057
527.880093	1.000239
528.242072	1.000263
528.603995	1.000141
528.965860	1.000937
529.327669	1.001249
529.689421	1.000052
530.051117	1.000685
530.412755	1.001202
530.774337	1.000517
531.135862	1.001244
531.497331	1.000710
531.858743	1.001208
532.220098	0.999729
532.581396	1.000896
532.942638	1.000455
533.303824	1.001313
533.664953	1.000624
534.026025	1.001048
534.387040	1.000471
534.747999	1.000252
535.108902	1.000592
535.469748	1.001069
535.830537	1.000577
536.191270	1.000794
536.551947	1.000428
536.912567	1.000720
537.273131	1.001460
537.633638	1.000566
537.994089	1.000733
538.354483	1.000801
538.714821	1.001299
539.075103	1.000982
539.435328	1.000510
539.795497	1.001148
540.155609	1.000919
540.515665	1.000590
540.875665	0.999893
541.235609	1.000879
541.595496	1.000431
541.955328	1.001159
542.315102	1.001064
542.674821	1.001202
543.034483	1.000605
543.394090	1.000365
543.753640	1.000835
544.113134	1.000003
544.472571	1.000831
544.831953	1.001272
545.191278	1.000658
545.550548	1.000047
545.909761	1.000427
546.268918	1.001283
546.628019	1.001265
546.987064	1.000136
547.346053	1.000032
547.704986	1.001099
548.063863	1.000042
548.422684	1.000937
548.781449	1.000620
549.140158	1.001246
549.498811	1.000213
549.857408	1.000671
550.215949	1.000294
550.574434	0.999785
550.932864	1.000851
551.291237	1.000686
551.649555	1.001122
552.007817	1.001068
552.366022	1.001225
552.724173	1.001102
553.082267	1.000323
553.440305	1.000067
553.798288	0.999726
554.156215	0.999998
554.514086	1.000455
554.871902	1.000719
555.229661	0.999886
555.587365	1.000765
555.945014	1.000601
556.302606	1.000013
556.660143	1.001029
557.017625	1.001073
557.375050	1.000402
557.732421	1.001007
558.089735	0.999750
558.446994	1.000742
558.804197	1.001018
559.161345	1.000259
559.518437	0.999797
559.875474	1.000525
560.232455	1.000803
560.589381	1.000711
560.946251	1.000009
561.303065	1.000996
561.659825	1.000101
562.016528	1.000503
562.373177	1.000726
562.729770	1.000766
563.086307	0.999164
563.442789	1.000577
563.799216	1.000647
564.155587	1.000339
564.511904	1.001429
564.868164	1.000158
565.224370	1.000011
565.580520	1.000376
565.936615	1.000671
566.292654	1.000102
566.648638	1.001137
567.004567	0.999943
567.360441	1.000957
567.716260	1.000810
568.072023	1.000251
568.427732	1.000267
568.783385	1.000743
569.138982	1.000628
569.494525	1.000629
569.850013	1.000960
570.205445	1.000895
570.560823	1.000494
570.916145	1.000683
571.271412	1.000907
571.626625	1.000708
571.981782	1.000754
572.336884	1.000662
572.691931	1.000394
573.046923	1.000957
573.401860	1.000304
573.756743	1.001315
574.111570	1.000758
574.466342	1.001043
574.821059	1.000335
575.175722	1.001029
575.530330	1.000951
575.884882	1.000078
576.239380	1.000525
576.593823	1.000571
576.948211	1.000886
577.302544	1.000226
577.656823	1.000655
578.011047	1.000188
578.365216	1.001533
578.719330	1.000456
579.073389	0.999964
579.427394	1.000609
579.781344	1.001211
580.135239	0.999984
580.489080	1.000382
580.842866	1.000730
581.196597	1.000330
581.550273	1.000086
581.903895	1.001488
582.257463	1.000741
582.610975	1.000097
582.964434	1.000568
583.317837	1.000963
583.671186	1.001002
584.024481	0.999981
584.377721	0.999829
584.730906	1.000654
585.084037	1.001247
585.437113	1.001211
585.790135	1.000580
586.143103	1.000574
586.496016	0.999920
586.848874	1.000645
587.201679	1.000517
587.554428	1.000509
587.907124	1.000979
588.259765	1.000409
588.612352	1.000955
588.964884	1.000789
589.317362	0.999894
589.669786	0.999787
590.022155	0.999948
590.374470	1.000235
590.726731	1.000095
591.078937	1.000921
591.431090	1.000304
591.783188	1.000607
592.135232	1.001083
592.487222	1.000410
592.839157	1.001086
593.191038	1.000695
593.542866	0.999884
593.894639	1.000002
594.246358	1.000214
594.598022	1.000278
594.949633	1.000572
595.301190	1.000048
595.652692	1.000097
596.004141	1.000138
596.355535	1.000278
596.706876	1.001152
597.058162	1.000753
597.409395	1.000842
597.760573	1.001042
598.111698	1.000171
598.462768	0.999603
598.813785	0.999645
599.164748	1.000439
599.515657	0.999308
599.866511	1.000453
600.217312	1.001022
600.568060	1.000059
600.918753	1.001165
601.269392	1.000303
601.619978	1.000982
601.970510	0.999988
602.320988	1.000241
602.671412	1.000288
603.021783	1.000761
603.372100	1.000824
603.722363	1.001078
604.072572	1.000032
604.422728	0.999436
604.772830	0.999687
605.122878	0.999980
605.472872	1.001003
605.822813	1.000418
606.172701	1.000686
606.522534	1.000553
606.872314	1.000861
607.222041	1.000136
607.571714	1.000086
607.921333	1.000047
608.270899	0.999927
608.620411	1.000391
608.969870	1.001152
609.319276	1.000057
609.668627	1.001127
610.017926	1.000092
610.367171	1.000319
610.716362	1.000006
611.065500	1.000166
611.414585	1.000220
611.763616	0.999796
612.112594	0.999839
612.461518	0.999910
612.810389	1.000503
613.159207	1.000448
613.507971	0.999505
613.856682	1.000863
614.205340	0.999597
614.553945	1.000844
614.902496	1.000087
615.250994	1.001139
615.599439	1.000509
615.947830	0.999946
616.296169	1.001235
616.644454	1.000310
616.992686	1.000787
617.340864	1.001199
617.688990	1.000179
618.037063	1.000659
618.385082	0.999757
618.733048	0.999958
619.080961	1.000392
619.428821	1.000868
619.776628	0.999653
620.124382	1.000646
620.472083	1.000629
620.819731	1.001357
621.167326	1.000278
621.514868	1.000564
621.862357	1.000569
622.209793	1.000437
622.557176	0.999660
622.904506	0.999863
623.251783	1.000246
623.599007	1.000854
623.946179	0.999760
624.293297	1.000578
624.640363	1.000539
624.987376	0.999450
625.334336	0.999853
625.681243	1.000541
626.028097	1.000367
626.374899	1.000347
626.721647	1.001079
627.068343	0.999732
627.414987	1.000474
627.761577	0.999258
628.108115	0.999897
628.454600	1.000965
628.801032	1.001170
629.147412	1.000007
629.493739	1.001126
629.840014	1.000008
630.186236	0.999943
630.532405	1.000145
630.878521	1.000119
631.224585	0.999894
631.570597	0.999381
631.916556	1.001099
632.262462	0.999604
632.608316	0.999465
632.954117	0.999401
633.299866	1.000137
633.645562	1.000408
633.991206	1.000370
634.336797	1.000778
634.682336	1.001102
635.027823	1.000573
635.373257	1.000706
635.718639	1.001323
636.063968	0.999998
636.409245	1.000440
636.754470	1.000221
637.099642	1.000301
637.444762	1.000580
637.789829	1.000077
638.134845	0.999739
638.479808	1.000704
638.824719	0.999961
639.169577	1.000233
639.514383	1.000275
639.859137	0.999653
640.203839	0.999112
640.548489	0.999628
640.893086	0.999732
641.237632	1.000521
641.582125	1.000171
641.926566	1.000413
642.270955	1.000337
642.615292	0.999638
642.959576	1.001178
643.303809	1.000459
643.647990	1.000127
643.992118	1.000627
644.336195	0.999840
644.680219	0.999922
645.024192	1.000048
645.368112	0.999561
645.711981	0.999540
646.055797	0.999882
646.399562	0.999536
646.743274	1.000248
647.086935	0.999392
647.430544	0.999418
647.774101	1.000272
648.117606	1.000641
648.461059	1.000689
648.804460	0.999445
649.147810	0.999376
649.491108	1.000081
649.834354	0.999795
650.177548	1.000151
650.520690	0.999971
650.863781	0.998970
651.206820	1.000125
651.549807	1.000065
651.892742	1.000464
652.235626	1.000204
652.578458	1.000217
652.921238	1.000337
653.263967	1.000492
653.606644	0.999928
653.949269	1.000903
654.291843	0.999506
654.634365	0.999892
654.976836	0.999366
655.319255	1.000920
655.661622	0.999954
656.003938	0.999311
656.346203	0.999069
656.688416	1.000374
657.030577	0.999969
657.372687	0.999618
657.714746	0.999230
658.056753	0.999804
658.398708	0.999498
658.740612	1.000579
659.082465	0.999145
659.424266	1.000124
659.766016	0.999371
660.107715	0.999599
660.449362	1.000052
660.790958	0.999852
661.132503	1.000638
661.473996	0.999311
661.815438	1.001120
662.156829	0.999969
662.498168	1.000317
662.839456	0.999211
663.180693	1.000275
663.521879	0.999698
663.863013	1.000944
664.204097	0.999362
664.545129	0.999387
664.886110	0.999320
665.227040	0.999236
665.567918	0.999526
665.908746	0.999469
666.249522	0.998894
666.590248	0.999556
666.930922	0.998980
667.271545	0.999741
667.612118	1.000277
667.952639	0.999536
668.293109	0.999001
668.633528	0.998732
668.973896	1.000192
669.314213	0.999425
669.654480	0.999565
669.994695	0.998713
670.334859	0.999724
670.674973	0.999983
671.015035	0.999668
671.355047	0.999457
671.695008	0.998994
672.034918	0.999647
672.374777	1.000380
672.714585	0.998999
673.054342	0.999968
673.394049	0.999230
673.733705	0.999103
674.073310	0.999538
674.412864	0.999076
674.752368	0.998849
675.091820	1.000428
675.431223	0.999535
675.770574	0.998732
676.109875	0.999799
676.449125	0.998346
676.788324	0.999448
677.127473	1.000452
677.466571	0.999062
677.805619	0.999315
678.144616	1.000791
678.483562	0.999895
678.822458	0.999956
679.161303	0.998869
679.500098	0.999720
679.838842	0.999317
680.177535	0.999920
680.516179	0.998496
680.854771	0.999048
681.193314	0.999018
681.531805	0.999827
681.870247	0.999433
682.208638	1.000231
682.546978	0.999033
682.885268	0.999574
683.223508	0.999086
683.561697	0.998927
683.899836	0.999656
684.237925	0.999747
684.575963	0.999503
684.913951	0.999682
685.251889	0.998546
685.589776	0.999111
685.927614	0.999944
686.265401	0.998416
686.603137	0.999179
686.940824	0.999058
687.278460	0.999642
687.616046	0.999165
687.953582	0.999718
688.291068	0.999217
688.628504	0.999491
688.965889	0.999465
689.303224	0.998154
689.640510	0.998835
689.977745	0.998126
690.314930	0.998525
690.652065	0.998920
690.989150	0.997941
691.326185	0.998595
691.663170	0.998804
692.000105	0.999529
692.336990	0.999250
692.673825	0.999191
693.010610	0.998691
693.347345	0.998663
693.684030	0.998120
694.020665	0.998883
694.357251	0.998495
694.693786	0.998828
695.030272	0.998108
695.366707	0.998905
695.703093	0.998208
696.039429	0.998286
696.375716	0.998638
696.711952	0.998137
697.048139	0.998914
697.384276	0.999083
697.720363	0.998710
698.056400	0.998025
698.392388	0.997470
698.728326	0.998644
699.064214	1.000002
699.400053	0.998331
699.735842	1.000103
700.071581	0.998595
700.407270	0.998631
700.742910	0.999367
701.078501	0.999653
701.414042	1.000095
701.749533	0.997699
702.084974	0.999772
702.420366	0.998523
702.755709	0.998801
703.091002	0.999477
703.426246	0.998766
703.761440	0.998165
704.096584	0.998922
704.431679	0.998387
704.766725	0.998541
705.101721	0.998837
705.436668	0.999178
705.771565	0.998285
706.106413	0.998103
706.441212	0.998835
706.775961	0.999601
707.110661	0.998342
707.445311	0.999515
707.779913	1.000011
708.114465	0.999772
708.448967	0.999285
708.783421	0.999672
709.117825	0.998560
709.452180	0.999467
709.786485	0.999034
710.120742	0.998871
710.454949	0.998986
710.789107	0.999293
711.123216	0.998094
711.457275	0.997974
711.791286	0.998328
712.125247	0.999889
712.459159	0.998939
712.793023	0.998259
713.126837	0.998271
713.460602	0.997956
713.794318	0.997829
714.127985	0.998608
714.461602	0.998313
714.795171	0.998423
715.128691	0.998228
715.462162	0.998437
715.795584	0.998688
716.128957	0.998506
716.462281	0.999322
716.795556	0.997829
717.128782	0.999994
717.461960	0.997352
717.795088	0.998406
718.128167	0.999693
718.461198	0.999263
718.794180	0.998826
719.127113	0.998510
719.459997	0.998219
719.792833	0.998911
720.125619	0.998497
720.458357	0.998972
720.791046	0.999094
721.123686	0.998812
721.456278	0.997673
721.788821	0.998348
722.121315	0.999302
722.453761	0.999039
722.786158	0.997625
723.118506	0.998591
723.450805	0.998633
723.783056	0.999569
724.115259	0.998453
724.447412	0.999422
724.779518	0.999524
725.111574	0.997894
725.443582	0.999161
725.775542	0.998059
726.107453	0.999598
726.439315	0.999014
726.771129	0.999413
727.102895	0.999311
727.434612	0.999509
727.766281	0.999394
728.097901	0.998084
728.429473	0.999655
728.760996	0.997621
729.092471	0.998540
729.423897	0.999231
729.755276	0.998477
730.086606	0.998626
730.417887	0.999277
730.749120	0.999405
731.080305	0.998311
731.411442	0.997961
731.742530	0.998407
732.073570	0.998489
732.404562	0.998484
732.735506	0.998870
733.066401	0.998324
733.397249	0.998385
733.728048	0.999065
734.058798	0.999091
734.389501	0.998914
734.720156	0.998723
735.050762	0.999269
735.381320	0.998694
735.711831	0.998252
736.042293	0.998369
736.372707	0.999854
736.703073	0.998113
737.033391	0.998843
737.363661	0.999285
737.693883	0.998397
738.024056	0.998549
738.354182	0.999145
738.684260	0.998374
739.014290	0.998380
739.344272	0.998632
739.674207	0.999290
740.004093	0.998958
740.333931	0.999143
740.663722	0.998581
740.993464	0.998955
741.323159	0.998865
741.652806	0.998371
741.982405	0.999347
742.311956	0.998631
742.641460	0.998392
742.970915	0.997853
743.300323	0.997914
743.629683	0.998788
743.958996	0.998649
744.288260	0.998157
744.617477	0.999550
744.946647	0.998840
745.275768	0.999782
745.604842	0.999340
745.933869	0.998925
746.262847	0.998780
746.591778	0.997429
746.920662	0.999835
747.249498	0.999575
747.578286	0.999090
747.907027	0.998381
748.235720	0.998669
748.564365	0.998994
748.892963	0.999046
749.221514	0.998842
749.550017	0.998053
749.878473	0.998376
750.206881	1.000318
750.535242	0.998238
750.863555	0.998564
751.191821	0.998669
751.520039	0.999071
751.848210	0.997842
752.176334	0.999134
752.504411	0.998415
752.832440	0.998867
753.160421	0.998930
753.488356	0.999702
753.816243	0.998841
754.144082	0.998514
754.471875	0.998059
754.799620	0.999323
755.127318	0.999097
755.454969	0.998372
755.782572	1.000279
756.110129	0.999415
756.437638	0.999551
756.765100	0.999266
757.092515	0.998631
757.419882	0.999636
757.747203	0.998803
758.074477	0.999308
758.401703	0.999348
758.728882	0.998794
759.056014	0.998933
759.383099	0.999316
759.710138	0.998947
760.037129	0.999934
760.364073	0.999154
760.690970	0.998128
761.017820	0.998064
761.344623	0.998504
761.671379	0.999743
761.998088	0.998793
762.324751	0.998599
762.651366	0.998115
762.977935	0.998111
763.304456	0.999870
763.630931	0.997092
763.957359	0.997360
764.283740	0.997294
764.610074	0.997586
764.936362	0.998574
765.262602	0.999080
765.588796	0.998799
765.914943	0.998441
766.241044	0.999343
766.567097	0.998580
766.893104	0.998970
767.219064	0.997990
767.544978	0.998083
767.870845	0.998571
768.196665	0.998809
768.522438	0.998390
768.848165	1.000132
769.173846	0.998984
769.499479	1.000038
769.825066	0.998982
770.150607	1.000287
770.476101	0.999672
770.801548	0.999605
771.126949	1.000293
771.452303	0.998070
771.777611	0.999292
772.102872	0.998825
772.428087	0.998788
772.753256	0.999520
773.078378	0.999764
773.403453	0.998533
773.728482	0.999931
774.053465	0.998933
774.378401	0.999504
774.703291	1.000409
775.028135	1.001406
775.352932	0.997400
775.677683	0.999455
776.002388	0.999071
776.327046	0.998699
776.651658	1.001414
776.976224	1.000286
777.300743	0.998320
777.625216	0.998288
777.949643	0.999066
778.274024	0.999123
778.598359	0.999502
778.922647	0.999877
779.246889	0.999931
779.571086	0.999367
779.895236	0.999037
780.219339	0.999981
780.543397	0.999278
780.867409	0.999310
781.191374	0.999518
781.515294	1.000803
781.839167	0.999946
782.162995	0.999543
782.486776	0.999063
782.810511	0.999871
783.134201	1.000243
783.457844	0.999842
783.781441	0.999188
784.104993	0.998681
784.428498	0.999016
784.751958	0.999559
785.075372	1.000156
785.398739	0.999927
785.722061	0.998702
786.045337	0.999884
786.368568	0.998862
786.691752	0.999315
787.014891	0.999502
787.337983	0.998723
787.661030	0.998733
787.984031	1.000221
788.306987	0.999966
788.629897	0.997698
788.952760	0.999361
789.275579	0.999422
789.598351	0.999265
789.921078	1.000081
790.243759	0.999492
790.566395	0.999732
790.888984	0.999873
791.211529	0.999656
791.534027	0.999277
791.856480	0.999794
792.178888	0.998791
792.501249	0.998598
792.823566	1.000571
793.145836	0.999406
793.468062	0.999782
793.790241	0.999404
794.112375	0.998718
794.434464	0.999535
794.756507	0.999464
795.078505	0.999619
795.400457	1.000745
795.722364	1.000466
796.044226	0.999654
796.366042	0.999108
796.687812	0.998946
797.009538	0.998845
797.331218	1.000020
797.652852	1.000418
797.974442	0.998378
798.295986	0.999880
798.617484	0.998266
798.938938	0.999624
799.260346	0.998235
799.581709	0.999138
799.903026	0.999309
800.224299	0.998676
800.545526	0.998687
800.866708	0.999087
801.187845	1.000691
801.508936	0.999820
801.829983	0.998550
802.150984	1.000089
802.471940	0.999032
802.792851	0.999977
803.113717	1.000253
803.434538	1.000093
803.755314	1.000183
804.076045	0.999633
804.396731	0.999653
804.717372	0.998364
805.037967	1.000003
805.358518	0.998854
805.679024	0.999204
805.999485	0.999007
806.319901	0.999996
806.640272	1.000217
806.960598	0.999140
807.280879	0.999330
807.601115	0.999630
807.921306	0.999236
808.241453	0.999170
808.561554	1.000773
808.881611	1.000580
809.201623	0.999115
809.521590	0.999368
809.841513	0.998771
810.161390	0.998928
810.481223	0.998867
810.801011	1.000004
811.120755	1.000969
811.440453	0.998716
811.760107	0.999695
812.079716	0.999671
812.399281	0.999229
812.718801	0.998752
813.038276	0.999390
813.357707	1.000033
813.677093	1.000425
813.996434	0.999907
814.315731	1.001239
814.634983	0.999416
814.954191	0.999808
815.273354	0.999628
815.592473	0.998649
815.911547	0.999458
816.230577	0.999856
816.549562	0.999064
816.868502	0.998861
817.187399	0.999248
817.506250	1.000252
817.825058	0.998638
818.143821	1.000720
818.462539	0.999072
818.781213	1.000003
819.099843	1.000244
819.418429	0.999242
819.736970	0.999677
820.055466	0.998391
820.373919	0.998685
820.692327	0.999157
821.010691	0.999231
821.329011	0.998889
821.647286	0.998095
821.965517	0.998217
822.283704	0.998571
822.601847	0.998333
822.919945	0.998151
823.237999	0.997654
823.556010	0.997879
823.873976	0.997769
824.191897	0.996713
824.509775	0.997947
824.827609	0.997632
825.145398	0.998114
825.463144	0.997486
825.780845	0.997255
826.098502	0.998741
826.416116	0.998877
826.733685	0.998275
827.051210	0.998498
827.368692	0.998536
827.686129	0.997700
828.003522	0.998575
828.320872	0.998684
828.638177	0.998541
828.955439	0.999108
829.272656	0.999470
829.589830	0.999112
829.906960	0.999876
830.224046	0.998344
830.541088	0.999132
830.858086	0.998336
831.175041	0.999942
831.491952	0.999360
831.808819	0.999474
832.125642	0.999432
832.442421	1.000224
832.759157	1.000276
833.075849	0.999001
833.392497	0.999694
833.709101	0.998163
834.025662	0.998824
834.342179	0.999202
834.658653	1.000171
834.975083	0.999394
835.291469	0.999684
835.607811	0.999179
835.924110	1.000361
836.240366	1.000351
836.556578	0.999592
836.872746	1.000743
837.188871	0.998744
837.504952	1.000109
837.820990	1.000033
838.136984	0.998939
838.452935	1.000109
838.768842	1.001069
839.084706	0.999625
839.400526	0.999671
839.716303	0.999728
840.032037	1.000276
840.347727	0.998985
840.663373	0.999339
840.978977	0.999021
841.294537	1.000437
841.610054	1.000321
841.925527	1.000253
842.240957	0.999309
842.556344	0.998975
842.871687	0.999592
843.186987	1.000204
843.502244	0.999880
843.817458	0.999533
844.132629	0.999412
844.447756	1.000316
844.762840	0.999830
845.077881	1.001693
845.392879	0.999210
845.707833	0.999348
846.022745	0.999762
846.337613	1.000999
846.652438	0.999606
846.967221	0.999222
847.281960	1.000019
847.596656	1.000243
847.911309	0.999884
848.225919	0.999102
848.540485	0.999419
848.855009	1.001189
849.169490	1.000792
849.483928	1.000170
849.798323	0.999342
850.112675	1.000388
850.426984	1.001150
850.741251	1.000608
851.055474	0.999677
851.369654	0.999349
851.683792	1.000202
851.997887	0.999042
852.311938	1.000071
852.625947	0.999793
852.939914	0.999397
853.253837	1.000913
853.567718	1.001040
853.881555	1.000653
854.195350	1.000270
854.509103	1.001033
854.822812	0.999651
855.136479	1.000955
855.450103	0.999987
855.763685	1.000345
856.077224	0.999448
856.390720	0.999684
856.704173	1.000772
857.017584	1.001125
857.330953	1.000486
857.644278	1.000782
857.957561	0.999714
858.270802	1.001523
858.584000	0.999904
858.897155	0.999649
859.210268	1.000850
859.523339	1.000531
859.836367	1.000265
860.149352	0.999905
860.462295	0.999519
860.775195	1.000357
861.088054	0.999212
861.400869	0.999944
861.713642	0.998965
862.026373	1.000137
862.339062	1.000431
862.651708	0.999208
862.964312	1.001480
863.276873	0.999920
863.589392	1.000812
863.901869	0.998765
864.214303	1.000629
864.526696	0.999353
864.839045	1.001405
865.151353	0.999667
865.463619	0.998674
865.775842	0.999973
866.088023	1.000984
866.400162	1.000579
866.712258	1.001678
867.024313	1.000085
867.336325	1.001441
867.648296	1.001398
867.960224	1.000231
868.272110	0.999767
868.583954	1.000624
868.895755	1.001196
869.207515	0.999311
869.519233	1.001145
869.830909	0.998908
870.142542	0.999282
870.454134	0.999797
870.765684	0.999601
871.077191	1.000474
871.388657	0.999948
871.700081	1.001529
872.011463	1.000492
872.322803	1.000554
872.634101	0.999286
872.945357	0.999589
873.256571	0.999714
873.567744	1.001238
873.878874	1.000669
874.189963	0.999313
874.501010	1.001132
874.812015	1.000348
875.122979	1.000636
875.433900	1.000311
875.744780	1.000824
876.055618	0.999179
876.366415	1.000506
876.677169	1.001290
876.987882	0.999882
877.298554	1.000708
877.609183	1.000997
877.919771	0.999569
878.230317	1.001007
878.540822	0.999863
878.851285	0.999018
879.161707	1.000255
879.472087	1.002030
879.782425	0.999185
880.092722	1.000103
880.402977	0.999704
880.713191	0.999326
881.023363	1.000204
881.333494	0.999892
881.643583	1.001085
881.953631	1.001383
882.263637	1.000391
882.573602	1.000709
882.883526	0.998797
883.193408	0.999892
883.503248	0.998251
883.813048	0.998499
884.122806	1.000058
884.432522	0.998650
884.742197	1.001065
885.051831	0.999310
885.361424	0.999527
885.670975	1.001271
885.980485	0.998974
886.289954	0.999979
886.599382	0.999325
886.908768	1.001332
887.218113	0.999602
887.527417	0.999713
887.836680	1.000742
888.145901	1.000418
888.455082	1.000834
888.764221	1.001279
889.073319	0.999746
889.382376	1.000194
889.691392	0.998368
890.000366	1.000958
890.309300	0.999435
890.618193	1.000737
890.927044	0.999445
891.235855	0.999776
891.544625	1.000101
891.853353	1.000022
892.162041	0.999104
892.470687	1.000401
892.779293	1.000313
893.087858	0.998909
893.396381	0.999747
893.704864	0.999725
894.013306	1.000380
894.321707	1.000140
894.630068	0.999829
894.938387	1.000114
895.246665	1.000871
895.554903	1.000561
895.863100	1.000128
896.171256	0.999771
896.479371	0.999774
896.787446	1.000369
897.095480	0.999905
897.403473	1.000568
897.711425	1.000285
898.019336	1.000018
898.327207	1.000688
898.635038	0.999034
898.942827	1.000666
899.250576	1.000188
899.558284	0.999897
899.865952	0.999558
900.173579	1.000700
900.481165	0.999876
900.788711	0.999465
901.096216	1.000033
901.403681	1.000160
901.711105	1.000812
902.018489	0.999655
902.325832	1.001445
902.633135	0.999896
902.940397	1.000294
903.247619	1.000098
903.554800	1.000398
903.861941	1.001101
904.169041	1.000437
904.476101	1.000625
904.783121	1.000529
905.090100	1.000129
905.397039	0.999949
905.703938	0.999679
906.010796	0.998298
906.317614	0.999034
906.624391	0.999854
906.931129	1.000422
907.237826	1.000076
907.544483	0.999987
907.851099	1.000119
908.157675	1.000544
908.464211	1.000408
908.770707	0.999409
909.077163	1.000765
909.383578	1.000758
909.689954	0.999867
909.996289	0.999565
910.302584	1.001148
910.608839	1.001438
910.915054	1.000787
911.221229	1.002199
911.527363	0.999316
911.833458	1.001105
912.139513	1.001119
912.445527	1.000564
912.751502	1.001066
913.057436	0.999440
913.363331	1.001787
913.669186	1.001937
913.975000	1.001328
914.280775	1.000782
914.586510	0.999595
914.892205	0.999601
915.197859	0.999771
915.503475	1.001273
915.809050	1.000836
916.114585	0.999716
916.420081	0.999935
916.725536	1.000997
917.030952	1.000876
917.336328	0.999944
917.641665	0.999499
917.946961	1.000315
918.252218	1.000118
918.557435	0.999994
918.862612	1.000211
919.167750	1.000729
919.472848	1.000905
919.777906	1.001828
920.082925	1.000887
920.387904	1.000334
920.692843	1.000052
920.997743	0.999528
921.302603	1.000764
921.607423	1.000562
921.912204	1.001340
922.216946	1.001136
922.521647	0.999567
922.826310	0.998216
923.130932	1.000880
923.435516	1.001028
923.740059	0.999843
924.044564	0.999982
924.349028	1.000192
924.653454	0.999857
924.957840	1.000826
925.262186	0.999826
925.566493	1.000070
925.870761	0.999223
926.174989	0.999346
926.479178	1.000772
926.783328	1.000426
927.087438	1.000871
927.391509	0.999969
927.695541	0.999814
927.999533	1.001741
928.303486	0.999755
928.607400	1.001217
928.911275	1.000670
929.215110	1.000586
929.518906	1.000845
929.822663	1.001510
930.126381	1.001370
930.430060	0.999924
930.733699	1.000974
931.037299	0.999955
931.340861	1.000869
931.644383	0.999798
931.947866	1.001365
932.251309	1.001141
932.554714	1.000592
932.858080	1.000591
933.161407	0.999357
933.464694	0.999676
933.767943	1.000400
934.071153	1.000970
934.374323	1.000897
934.677455	1.000625
934.980548	1.000230
935.283602	1.000989
935.586617	0.999171
935.889593	1.000521
936.192530	1.000838
936.495428	1.000054
936.798287	0.998838
937.101108	1.000537
937.403890	1.000080
937.706632	1.001767
938.009336	1.000238
938.312002	0.999347
938.614628	1.000421
938.917216	1.000808
939.219765	0.999627
939.522275	1.001471
939.824747	1.000602
940.127179	1.000161
940.429573	1.001435
940.731929	0.999513
941.034246	0.999219
941.336524	0.999696
941.638763	1.001011
941.940964	1.000692
942.243126	0.999616
942.545250	1.000647
942.847335	1.000430
943.149381	1.000718
943.451389	1.000042
943.753359	1.000885
944.055290	1.001213
944.357182	1.000503
944.659036	1.001423
944.960851	1.001064
945.262628	1.001055
945.564367	1.000942
945.866067	0.999975
946.167729	1.000532
946.469352	1.000425
946.770937	0.998631
947.072484	1.001126
947.373992	1.000572
947.675462	0.999259
947.976893	1.000220
948.278286	1.001629
948.579641	1.001463
948.880958	0.999841
949.182236	1.000444
949.483476	1.000857
949.784678	1.000679
950.085841	0.999101
950.386967	0.999832
950.688054	1.000313
950.989103	0.998651
951.290114	0.999393
951.591087	1.000606
951.892021	1.000020
952.192917	1.000872
952.493776	1.000644
952.794596	1.001165
953.095378	0.999824
953.396122	1.000242
953.696828	1.000633
953.997496	1.000176
954.298126	1.001315
954.598718	0.999864
954.899272	0.999752
955.199788	0.999618
955.500266	1.000739
955.800706	1.000460
956.101108	0.999902
956.401472	1.002220
956.701798	1.000003
957.002087	1.000103
957.302337	1.000387
957.602550	1.000285
957.902724	1.001021
958.202861	1.000727
958.502960	0.999995
958.803022	1.001209
959.103045	1.000080
959.403031	1.000997
959.702979	1.000095
960.002889	0.999931
960.302762	0.999894
960.602596	1.001513
960.902393	1.000059
961.202153	1.000305
961.501875	0.999998
961.801559	1.001017
962.101205	1.000810
962.400814	1.001222
962.700385	0.999948
962.999918	1.000523
963.299414	0.999184
963.598873	1.000484
963.898293	0.999869
964.197677	0.999989
964.497022	1.000308
964.796331	0.999187
965.095601	1.001144
965.394835	1.000237
965.694030	1.001069
965.993189	1.000515
966.292309	1.000424
966.591393	0.999836
966.890439	1.000999
967.189447	0.999696
967.488419	0.999071
967.787353	0.999998
968.086249	1.000829
968.385108	1.000321
968.683930	1.000289
968.982714	1.000523
969.281462	0.999493
969.580172	1.000154
969.878844	0.999996
970.177480	0.999627
970.476078	1.001566
970.774639	0.999773
971.073162	0.999840
971.371649	0.999862
971.670098	0.999791
971.968510	1.000772
972.266885	0.999240
972.565223	1.001366
972.863524	0.999546
973.161788	0.999383
973.460014	1.001113
973.758204	0.998997
974.056356	0.999788
974.354471	1.000783
974.652550	1.000924
974.950591	0.999551
975.248595	0.998733
975.546563	1.001379
975.844493	1.000909
976.142386	1.000145
976.440243	1.000294
976.738062	1.000502
977.035845	0.999452
977.333590	1.001395
977.631299	0.999873
977.928971	1.001049
978.226606	0.999989
978.524204	0.999505
978.821765	1.001107
979.119290	1.001019
979.416777	0.999927
979.714228	1.000093
980.011642	1.001070
980.309020	1.000333
980.606360	0.999923
980.903664	0.999888
981.200931	1.000335
981.498162	0.999668
981.795356	1.000577
982.092513	1.000567
982.389633	1.000025
982.686717	0.999392
982.983764	1.001185
983.280775	1.000456
983.577749	1.002121
983.874686	0.999233
984.171587	0.999424
984.468451	0.999778
984.765279	1.001297
985.062070	0.999909
985.358824	0.999749
985.655543	1.000194
985.952224	1.000134
986.248869	0.999284
986.545478	1.000584
986.842050	1.000328
987.138586	0.999282
987.435086	1.001165
987.731549	1.001322
988.027975	1.002293
988.324366	1.000606
988.620719	1.000455
988.917037	1.000504
989.213318	1.001165
989.509563	1.000701
989.805772	1.002123
990.101944	1.000567
990.398080	1.000871
990.694180	1.000537
990.990244	0.999914
991.286271	0.999846
991.582262	1.000963
991.878217	0.999800
992.174136	1.001600
992.470019	1.001295
992.765865	1.001757
993.061676	1.000959
993.357450	1.000290
993.653188	1.001447
993.948890	1.000757
994.244556	0.998910
994.540186	0.999189
994.835780	0.999310
995.131337	1.001360
995.426859	1.000194
995.722345	0.999582
996.017795	0.999594
996.313208	0.999670
996.608586	0.999505
996.903928	1.001181
997.199234	0.999716
997.494504	1.001946
997.789738	0.999682
998.084936	1.001048
998.380099	0.999172
998.675225	1.000253
998.970316	1.000961
999.265371	1.001131
999.560390	1.000364
999.855373	1.000115
1000.150320	0.999521
1000.445232	1.000219
1000.740108	1.000831
1001.034948	1.000071
1001.329752	1.000659
1001.624521	1.000194
1001.919254	0.999351
1002.213951	1.001212
1002.508613	1.000283
1002.803239	0.999595
1003.097829	1.000048
1003.392384	1.001049
1003.686903	1.000864
1003.981386	1.001173
1004.275834	1.002280
1004.570246	0.999224
1004.864623	1.000251
1005.158964	1.001524
1005.453270	0.999900
1005.747540	0.999855
1006.041775	1.000199
1006.335974	1.001625
1006.630138	1.000223
1006.924266	0.999741
1007.218359	0.999492
1007.512416	1.001086
1007.806438	1.000103
1008.100425	1.001108
1008.394376	1.000496
1008.688292	1.000943
1008.982172	0.999782
1009.276017	1.001598
1009.569827	1.002309
1009.863602	0.999109
1010.157341	1.001018
1010.451045	1.000031
1010.744714	1.001184
1011.038347	1.000767
1011.331945	0.998980
1011.625508	0.999585
1011.919036	1.000299
1012.212528	1.000839
1012.505986	1.000151
1012.799408	1.000259
1013.092795	1.001106
1013.386147	1.000054
1013.679464	1.002121
1013.972745	1.000721
1014.265992	1.000561
1014.559204	0.999406
1014.852380	1.001405
1015.145521	1.000187
1015.438628	0.999925
1015.731699	1.001069
1016.024736	1.001141
1016.317737	0.999696
1016.610703	1.000521
1016.903635	1.000294
1017.196531	0.999694
1017.489393	1.000495
1017.782219	0.999878
1018.075011	1.000191
1018.367768	0.998831
1018.660490	1.000661
1018.953177	1.000661
1019.245829	1.000661
