Dividing Wavelength (nm)	Counts (n)	Blue Motor Position (mm): 49.300000	Red Motor Position (mm): 0.000000	
326.493990	0.999837
326.888308	0.999837
327.282561	0.999837
327.676750	1.001525
328.070874	1.000176
328.464933	1.000025
328.858929	1.001435
329.252859	0.999288
329.646726	0.998536
330.040528	1.000198
330.434265	1.001056
330.827938	0.999358
331.221547	1.000526
331.615091	1.001053
332.008571	1.001464
332.401986	0.999616
332.795338	0.998774
333.188625	1.000851
333.581847	0.998925
333.975006	1.000348
334.368100	1.000115
334.761129	0.999317
335.154095	1.000050
335.546996	1.000021
335.939833	1.000165
336.332606	0.999595
336.725315	0.999144
337.117960	1.000808
337.510540	0.999965
337.903056	1.000838
338.295508	1.001317
338.687896	1.001095
339.080220	1.000139
339.472480	1.000189
339.864676	1.001941
340.256807	0.998558
340.648875	1.000825
341.040879	1.000612
341.432818	1.000416
341.824694	1.000386
342.216506	1.000440
342.608253	0.999870
342.999937	0.999605
343.391557	1.000042
343.783113	1.001908
344.174605	1.000033
344.566033	0.999084
344.957397	1.000886
345.348697	1.000900
345.739934	1.001226
346.131106	0.999800
346.522215	0.999947
346.913260	1.000493
347.304241	0.999161
347.695159	1.000342
348.086012	1.000621
348.476802	0.999782
348.867528	0.999757
349.258191	0.999883
349.648789	0.998943
350.039324	1.001534
350.429796	1.000169
350.820203	0.998908
351.210548	1.000601
351.600828	1.000320
351.991045	1.001179
352.381198	1.000576
352.771288	1.000662
353.161314	1.001180
353.551276	1.000787
353.941175	0.999044
354.331010	1.000976
354.720782	0.999480
355.110490	0.999715
355.500135	1.000729
355.889717	0.999988
356.279235	0.999460
356.668689	1.000229
357.058080	0.999757
357.447408	1.000245
357.836672	1.000885
358.225873	1.000480
358.615010	1.000007
359.004084	0.999062
359.393095	1.000248
359.782043	0.999733
360.170927	1.001123
360.559748	1.000427
360.948505	0.999221
361.337199	0.999038
361.725830	0.999515
362.114398	1.000414
362.502903	0.999565
362.891344	0.998454
363.279722	0.999500
363.668037	1.000297
364.056289	1.000117
364.444478	1.001482
364.832603	0.999293
365.220665	0.999901
365.608665	1.000442
365.996601	1.000153
366.384474	0.998772
366.772284	1.000731
367.160031	0.999642
367.547715	0.999949
367.935336	0.999502
368.322893	0.999151
368.710388	0.997846
369.097820	0.998325
369.485189	0.996898
369.872495	0.997511
370.259738	0.996972
370.646918	0.995629
371.034035	0.997235
371.421090	0.996532
371.808081	0.994014
372.195010	0.995642
372.581875	0.994228
372.968678	0.995094
373.355418	0.994766
373.742096	0.993270
374.128710	0.993804
374.515262	0.993918
374.901751	0.993869
375.288177	0.992458
375.674540	0.993706
376.060841	0.993635
376.447079	0.992041
376.833254	0.993545
377.219367	0.993695
377.605417	0.993551
377.991404	0.993146
378.377329	0.993607
378.763191	0.992899
379.148991	0.994179
379.534727	0.993745
379.920402	0.993461
380.306013	0.993902
380.691563	0.994883
381.077049	0.994945
381.462474	0.996836
381.847835	0.996196
382.233134	0.996571
382.618371	0.997131
383.003545	0.996694
383.388657	0.996692
383.773706	0.997960
384.158693	0.997449
384.543618	0.999564
384.928480	0.998500
385.313280	0.997976
385.698017	0.998708
386.082692	0.997911
386.467305	0.997635
386.851856	0.999559
387.236344	0.999066
387.620770	1.001612
388.005133	1.000108
388.389435	0.999529
388.773674	0.999262
389.157851	1.000742
389.541965	1.001130
389.926018	1.000055
390.310008	1.000300
390.693936	1.001426
391.077802	1.001590
391.461606	0.999218
391.845348	1.000752
392.229027	0.999411
392.612645	1.000627
392.996200	1.001185
393.379694	0.999966
393.763125	1.000762
394.146494	1.000058
394.529801	1.000825
394.913047	0.999958
395.296230	1.000033
395.679351	1.000586
396.062410	1.000798
396.445408	1.001637
396.828343	1.000770
397.211217	0.999963
397.594028	0.999587
397.976778	1.000866
398.359466	1.000359
398.742092	1.000724
399.124656	0.999685
399.507158	0.999466
399.889598	1.001457
400.271977	0.999963
400.654294	1.000206
401.036549	1.001382
401.418742	1.000643
401.800874	1.001152
402.182944	0.999503
402.564952	1.000413
402.946898	1.000620
403.328783	1.001323
403.710606	0.999917
404.092367	1.000673
404.474067	1.001252
404.855705	1.002417
405.237282	1.001357
405.618797	1.000679
406.000250	1.000163
406.381642	1.000440
406.762972	1.001384
407.144240	1.001034
407.525447	0.999731
407.906593	1.000144
408.287677	1.000040
408.668700	1.001626
409.049661	1.001531
409.430560	1.000266
409.811399	1.000112
410.192176	1.001020
410.572891	1.000753
410.953545	1.000341
411.334138	1.000784
411.714669	1.000413
412.095139	1.001008
412.475547	1.000926
412.855894	1.000040
413.236180	1.000651
413.616405	1.000232
413.996568	1.001145
414.376670	1.000950
414.756711	1.000585
415.136691	1.001413
415.516609	1.000567
415.896466	1.001198
416.276262	1.000631
416.655997	1.001004
417.035670	1.000356
417.415283	1.000324
417.794834	1.000942
418.174324	1.001829
418.553753	0.999753
418.933121	1.000794
419.312428	1.001109
419.691674	1.000840
420.070859	1.001129
420.449983	1.000845
420.829045	0.999774
421.208047	1.001100
421.586988	1.000524
421.965867	1.001298
422.344686	1.000415
422.723444	1.000363
423.102141	1.000812
423.480777	0.999732
423.859352	1.000558
424.237866	1.000385
424.616319	1.001587
424.994712	1.001258
425.373044	1.000347
425.751314	1.000370
426.129524	1.001263
426.507673	1.000202
426.885762	1.000174
427.263789	1.000349
427.641756	1.000770
428.019662	1.001528
428.397508	1.000893
428.775292	1.000852
429.153016	1.001085
429.530679	1.001050
429.908282	1.000524
430.285824	1.000870
430.663305	1.000784
431.040726	1.000575
431.418086	1.000632
431.795385	1.001121
432.172624	1.001560
432.549802	1.001302
432.926920	1.001214
433.303977	1.001205
433.680974	1.001584
434.057910	1.001188
434.434786	0.999912
434.811601	1.001171
435.188355	1.001910
435.565050	1.001314
435.941683	1.000514
436.318257	1.000140
436.694770	1.001235
437.071222	1.001092
437.447614	1.000743
437.823946	1.001823
438.200218	1.000786
438.576429	1.000081
438.952580	1.001018
439.328670	1.000129
439.704700	1.000918
440.080670	1.001956
440.456580	1.001176
440.832429	1.001021
441.208218	1.000604
441.583947	1.001037
441.959616	1.000434
442.335224	1.001522
442.710773	1.001894
443.086261	1.001406
443.461689	1.000403
443.837057	1.001027
444.212365	1.001140
444.587612	1.001819
444.962800	1.001458
445.337927	1.002067
445.712995	1.001053
446.088002	1.000434
446.462949	1.000469
446.837837	1.002493
447.212664	1.001040
447.587431	1.001135
447.962139	1.000523
448.336786	0.999779
448.711374	1.000582
449.085901	1.001969
449.460369	1.002202
449.834776	1.000830
450.209124	1.001030
450.583412	1.001426
450.957640	1.000790
451.331808	1.001519
451.705917	1.000958
452.079965	1.000402
452.453954	1.001459
452.827883	1.002178
453.201752	1.001932
453.575562	1.001086
453.949311	1.002084
454.323001	1.001009
454.696632	1.000884
455.070202	1.000952
455.443713	1.000953
455.817164	1.001392
456.190556	1.000792
456.563888	1.001831
456.937160	1.001156
457.310373	1.000359
457.683526	1.000656
458.056619	1.001557
458.429653	1.001153
458.802628	1.000933
459.175542	1.000693
459.548398	1.000437
459.921194	1.001422
460.293930	1.001918
460.666607	1.000735
461.039224	1.000885
461.411782	1.000496
461.784280	1.000498
462.156719	1.001787
462.529099	1.001281
462.901419	1.001587
463.273680	1.000311
463.645882	1.001609
464.018024	1.001697
464.390106	1.000822
464.762130	1.001075
465.134094	1.000882
465.505999	1.001350
465.877845	1.000464
466.249631	1.000709
466.621358	0.999945
466.993026	1.001278
467.364634	1.001243
467.736184	1.001088
468.107674	1.001446
468.479105	1.001249
468.850477	1.001558
469.221790	1.001952
469.593043	1.001187
469.964238	1.001246
470.335373	1.000699
470.706449	1.001352
471.077467	1.001186
471.448425	1.001331
471.819324	1.001322
472.190164	1.001014
472.560945	1.001645
472.931667	1.001503
473.302330	1.001664
473.672934	1.001436
474.043479	1.001263
474.413965	1.001491
474.784393	1.001445
475.154761	1.001421
475.525070	1.001399
475.895321	1.001546
476.265513	1.001529
476.635645	1.001715
477.005719	1.001286
477.375734	1.001448
477.745691	1.001096
478.115588	1.001008
478.485427	1.000837
478.855207	1.001420
479.224928	1.000725
479.594591	1.001190
479.964194	1.001362
480.333739	1.001135
480.703226	1.001026
481.072653	1.000805
481.442022	1.001632
481.811333	1.001435
482.180584	1.001340
482.549777	1.001091
482.918912	1.001463
483.287988	1.001372
483.657005	1.000920
484.025964	1.001237
484.394864	1.000921
484.763706	1.001110
485.132489	1.001235
485.501213	1.002050
485.869879	1.001446
486.238487	1.000474
486.607036	1.001914
486.975527	1.001541
487.343959	1.000665
487.712333	1.001453
488.080648	1.000445
488.448905	1.001634
488.817104	1.000643
489.185244	1.000927
489.553326	1.001686
489.921350	1.001557
490.289315	1.001402
490.657222	1.000894
491.025070	1.001419
491.392861	1.001767
491.760593	1.001564
492.128267	1.001502
492.495883	1.000791
492.863440	1.001696
493.230939	1.001504
493.598380	1.001689
493.965763	1.000877
494.333088	1.000135
494.700354	1.000880
495.067563	1.001226
495.434713	1.001485
495.801805	1.000951
496.168839	1.001503
496.535815	1.002292
496.902733	1.000706
497.269593	1.001084
497.636395	1.001229
498.003139	1.001113
498.369825	1.001798
498.736453	1.001206
499.103023	1.001451
499.469535	1.001245
499.835989	1.001386
500.202385	1.000942
500.568723	1.001081
500.935003	1.001058
501.301226	1.000893
501.667390	1.001180
502.033497	1.001327
502.399546	1.001662
502.765537	1.001227
503.131470	1.002017
503.497345	1.001978
503.863163	1.001364
504.228923	1.001120
504.594625	1.001003
504.960269	1.001233
505.325856	1.002141
505.691385	1.001680
506.056856	1.001297
506.422270	1.001215
506.787625	1.001203
507.152924	1.001610
507.518164	1.001401
507.883347	1.000699
508.248472	1.000856
508.613540	1.001024
508.978550	1.001051
509.343503	1.000984
509.708398	1.001290
510.073236	1.001722
510.438016	1.001284
510.802738	1.000730
511.167403	1.001397
511.532010	1.001714
511.896561	1.001671
512.261053	1.001342
512.625488	1.000896
512.989866	1.001551
513.354186	1.001171
513.718449	1.001052
514.082655	1.001606
514.446803	1.001176
514.810894	1.001961
515.174927	1.001754
515.538904	1.001692
515.902822	1.001338
516.266684	1.001808
516.630488	1.002084
516.994235	1.001532
517.357925	1.001943
517.721558	1.000708
518.085133	1.000552
518.448651	1.001235
518.812112	1.001703
519.175516	1.001662
519.538863	1.001289
519.902152	1.001066
520.265385	1.001350
520.628560	1.000296
520.991678	1.001448
521.354739	1.001934
521.717743	1.001397
522.080690	1.000636
522.443580	1.001702
522.806413	1.001036
523.169189	1.002266
523.531908	1.001021
523.894569	1.001187
524.257174	1.001331
524.619722	1.001128
524.982213	1.001778
525.344647	1.000768
525.707025	1.001229
526.069345	1.001582
526.431608	1.001273
526.793815	1.001520
527.155964	1.001631
527.518057	1.001743
527.880093	1.001089
528.242072	1.001209
528.603995	1.000846
528.965860	1.001431
529.327669	1.001241
529.689421	1.001136
530.051117	1.001654
530.412755	1.001657
530.774337	1.001313
531.135862	1.001933
531.497331	1.001007
531.858743	1.001624
532.220098	1.001091
532.581396	1.001958
532.942638	1.001188
533.303824	1.001518
533.664953	1.001070
534.026025	1.001993
534.387040	1.001188
534.747999	1.001171
535.108902	1.001517
535.469748	1.001820
535.830537	1.001893
536.191270	1.001255
536.551947	1.000893
536.912567	1.002239
537.273131	1.001463
537.633638	1.001470
537.994089	1.001280
538.354483	1.001502
538.714821	1.001915
539.075103	1.001253
539.435328	1.001507
539.795497	1.001837
540.155609	1.001853
540.515665	1.001597
540.875665	1.001781
541.235609	1.001760
541.595496	1.001146
541.955328	1.001834
542.315102	1.001394
542.674821	1.001254
543.034483	1.001124
543.394090	1.000928
543.753640	1.001479
544.113134	1.001229
544.472571	1.001816
544.831953	1.001459
545.191278	1.000842
545.550548	1.000646
545.909761	1.000911
546.268918	1.001842
546.628019	1.001630
546.987064	1.000878
547.346053	1.001139
547.704986	1.001720
548.063863	1.000990
548.422684	1.001783
548.781449	1.001770
549.140158	1.001747
549.498811	1.000593
549.857408	1.000917
550.215949	1.001047
550.574434	1.001146
550.932864	1.001534
551.291237	1.000708
551.649555	1.001591
552.007817	1.001595
552.366022	1.001937
552.724173	1.001257
553.082267	1.001202
553.440305	1.000842
553.798288	1.000842
554.156215	1.001394
554.514086	1.001457
554.871902	1.000861
555.229661	1.001204
555.587365	1.001520
555.945014	1.001928
556.302606	1.001234
556.660143	1.001773
557.017625	1.001936
557.375050	1.000626
557.732421	1.000828
558.089735	1.001203
558.446994	1.000430
558.804197	1.001331
559.161345	1.000621
559.518437	1.001276
559.875474	1.001250
560.232455	1.001924
560.589381	1.001996
560.946251	1.001580
561.303065	1.001342
561.659825	1.000552
562.016528	1.001889
562.373177	1.000826
562.729770	1.001232
563.086307	1.000924
563.442789	1.001631
563.799216	1.000857
564.155587	1.001662
564.511904	1.001496
564.868164	1.000636
565.224370	1.001181
565.580520	1.001870
565.936615	1.001538
566.292654	1.000735
566.648638	1.001724
567.004567	1.001439
567.360441	1.001982
567.716260	1.001106
568.072023	1.001011
568.427732	1.000785
568.783385	1.001496
569.138982	1.001321
569.494525	1.000946
569.850013	1.001440
570.205445	1.001117
570.560823	1.001259
570.916145	1.001267
571.271412	1.001138
571.626625	1.001313
571.981782	1.001322
572.336884	1.001745
572.691931	1.000849
573.046923	1.001813
573.401860	1.000865
573.756743	1.001305
574.111570	1.001416
574.466342	1.002272
574.821059	1.001469
575.175722	1.001830
575.530330	1.001430
575.884882	1.001141
576.239380	1.001057
576.593823	1.000257
576.948211	1.001833
577.302544	1.000777
577.656823	1.001537
578.011047	1.001071
578.365216	1.001591
578.719330	1.001407
579.073389	0.999715
579.427394	1.000720
579.781344	1.001282
580.135239	1.000766
580.489080	1.001389
580.842866	1.001484
581.196597	1.001180
581.550273	1.000924
581.903895	1.001025
582.257463	1.001243
582.610975	1.001136
582.964434	1.001112
583.317837	1.001203
583.671186	1.001792
584.024481	1.000629
584.377721	1.000411
584.730906	1.001179
585.084037	1.001722
585.437113	1.001651
585.790135	1.000939
586.143103	1.001094
586.496016	1.000953
586.848874	1.001393
587.201679	1.001305
587.554428	1.000958
587.907124	1.000715
588.259765	1.001646
588.612352	1.001808
588.964884	1.001279
589.317362	1.000977
589.669786	1.000768
590.022155	1.000374
590.374470	1.000235
590.726731	1.000763
591.078937	1.001286
591.431090	1.001795
591.783188	1.000744
592.135232	1.001410
592.487222	1.001029
592.839157	1.001332
593.191038	1.001698
593.542866	1.001348
593.894639	0.999749
594.246358	1.001330
594.598022	1.000992
594.949633	1.001606
595.301190	1.000868
595.652692	1.000904
596.004141	1.001166
596.355535	1.001173
596.706876	1.001376
597.058162	1.001044
597.409395	1.001246
597.760573	1.001026
598.111698	1.000977
598.462768	1.000139
598.813785	1.000153
599.164748	1.000568
599.515657	1.000883
599.866511	1.000874
600.217312	1.001245
600.568060	1.000476
600.918753	1.000921
601.269392	1.001737
601.619978	1.001890
601.970510	1.000970
602.320988	1.001272
602.671412	1.000349
603.021783	1.000786
603.372100	1.001788
603.722363	1.001601
604.072572	1.001373
604.422728	1.000841
604.772830	1.000761
605.122878	1.001242
605.472872	1.001128
605.822813	1.000453
606.172701	1.001449
606.522534	1.000685
606.872314	1.001817
607.222041	1.001150
607.571714	1.000936
607.921333	1.001238
608.270899	1.000226
608.620411	1.001219
608.969870	1.001225
609.319276	1.000936
609.668627	1.001953
610.017926	1.001277
610.367171	1.000981
610.716362	1.000819
611.065500	1.001007
611.414585	1.001019
611.763616	0.999567
612.112594	1.001211
612.461518	1.000471
612.810389	1.002032
613.159207	1.000378
613.507971	1.000858
613.856682	1.002131
614.205340	1.000261
614.553945	1.000141
614.902496	1.000398
615.250994	1.000905
615.599439	1.001235
615.947830	1.000657
616.296169	1.000935
616.644454	1.001411
616.992686	1.001212
617.340864	1.001972
617.688990	1.001631
618.037063	1.002285
618.385082	1.000239
618.733048	0.999839
619.080961	0.999817
619.428821	1.001558
619.776628	1.000420
620.124382	1.001253
620.472083	1.000647
620.819731	1.001329
621.167326	1.001550
621.514868	1.001836
621.862357	1.000745
622.209793	1.001314
622.557176	1.000632
622.904506	1.000455
623.251783	1.001132
623.599007	1.000871
623.946179	1.000613
624.293297	1.001944
624.640363	1.001870
624.987376	1.000518
625.334336	1.000745
625.681243	1.001006
626.028097	1.001209
626.374899	1.000423
626.721647	1.001045
627.068343	1.000182
627.414987	1.000429
627.761577	1.000454
628.108115	1.000783
628.454600	1.000228
628.801032	1.000516
629.147412	1.001303
629.493739	1.002093
629.840014	1.000551
630.186236	1.000070
630.532405	1.000562
630.878521	1.000381
631.224585	1.000993
631.570597	1.000814
631.916556	1.000609
632.262462	1.000514
632.608316	1.000999
632.954117	1.000313
633.299866	1.000684
633.645562	1.001102
633.991206	1.000664
634.336797	1.000041
634.682336	1.000629
635.027823	1.000783
635.373257	1.000555
635.718639	1.001369
636.063968	1.001128
636.409245	1.001065
636.754470	1.000804
637.099642	1.000902
637.444762	1.001441
637.789829	1.000510
638.134845	1.000940
638.479808	1.001048
638.824719	1.000764
639.169577	1.000550
639.514383	1.001356
639.859137	1.001142
640.203839	1.000102
640.548489	1.001116
640.893086	1.001029
641.237632	1.000975
641.582125	1.000982
641.926566	1.001746
642.270955	1.001310
642.615292	0.999927
642.959576	1.000358
643.303809	1.001364
643.647990	1.000374
643.992118	1.001298
644.336195	1.000478
644.680219	1.000239
645.024192	1.000541
645.368112	1.000269
645.711981	0.999968
646.055797	1.001453
646.399562	0.999886
646.743274	1.001335
647.086935	1.000926
647.430544	1.000211
647.774101	1.000069
648.117606	1.001242
648.461059	1.000686
648.804460	1.000984
649.147810	1.000805
649.491108	0.999599
649.834354	1.000816
650.177548	1.000556
650.520690	1.000232
650.863781	1.001100
651.206820	1.001007
651.549807	1.001067
651.892742	1.001119
652.235626	1.000424
652.578458	1.001184
652.921238	1.001482
653.263967	1.001737
653.606644	1.000781
653.949269	1.001020
654.291843	1.000497
654.634365	1.001367
654.976836	0.999903
655.319255	1.001488
655.661622	1.000336
656.003938	1.000375
656.346203	1.001512
656.688416	1.001317
657.030577	1.000388
657.372687	1.001132
657.714746	1.000841
658.056753	1.000129
658.398708	1.000160
658.740612	1.001356
659.082465	1.000716
659.424266	1.001385
659.766016	1.000912
660.107715	1.001265
660.449362	1.000945
660.790958	1.000077
661.132503	1.001967
661.473996	1.000458
661.815438	1.000689
662.156829	1.000970
662.498168	1.001320
662.839456	0.999521
663.180693	1.001830
663.521879	1.000720
663.863013	1.000622
664.204097	0.999914
664.545129	1.000120
664.886110	1.000695
665.227040	1.000293
665.567918	1.000786
665.908746	1.000129
666.249522	1.000148
666.590248	1.001209
666.930922	1.000295
667.271545	1.001330
667.612118	1.001033
667.952639	1.000243
668.293109	1.000498
668.633528	1.000326
668.973896	1.001320
669.314213	1.000413
669.654480	1.000440
669.994695	0.999756
670.334859	1.001128
670.674973	1.000883
671.015035	1.000329
671.355047	1.000571
671.695008	1.000397
672.034918	1.000361
672.374777	1.000280
672.714585	0.999909
673.054342	1.000872
673.394049	1.001023
673.733705	1.000262
674.073310	1.000600
674.412864	0.999974
674.752368	1.000266
675.091820	1.001357
675.431223	1.001054
675.770574	1.000443
676.109875	1.000870
676.449125	1.000612
676.788324	1.000545
677.127473	1.000604
677.466571	1.000602
677.805619	1.001010
678.144616	1.000584
678.483562	1.001024
678.822458	1.001588
679.161303	1.000262
679.500098	1.001116
679.838842	1.001514
680.177535	1.000931
680.516179	0.999176
680.854771	1.000026
681.193314	1.000834
681.531805	1.000638
681.870247	1.000488
682.208638	1.000980
682.546978	0.999307
682.885268	1.000529
683.223508	0.999346
683.561697	1.000541
683.899836	1.000438
684.237925	1.000091
684.575963	1.000637
684.913951	1.000573
685.251889	1.000268
685.589776	1.000151
685.927614	1.000150
686.265401	1.000105
686.603137	0.999765
686.940824	1.000692
687.278460	1.000847
687.616046	1.000554
687.953582	0.999795
688.291068	1.000887
688.628504	0.999844
688.965889	0.999730
689.303224	0.999045
689.640510	1.000578
689.977745	1.000220
690.314930	1.000106
690.652065	1.000530
690.989150	1.000889
691.326185	1.001399
691.663170	1.000505
692.000105	1.000378
692.336990	1.000981
692.673825	1.000498
693.010610	1.000277
693.347345	1.000695
693.684030	1.000359
694.020665	1.000020
694.357251	1.000336
694.693786	1.001235
695.030272	0.999583
695.366707	1.000448
695.703093	1.000273
696.039429	1.000160
696.375716	1.000523
696.711952	1.000073
697.048139	1.000562
697.384276	0.999956
697.720363	1.000505
698.056400	0.998829
698.392388	0.999698
698.728326	0.999790
699.064214	1.002178
699.400053	1.000072
699.735842	1.000445
700.071581	1.000883
700.407270	0.999635
700.742910	1.000127
701.078501	1.000628
701.414042	1.001992
701.749533	0.999552
702.084974	1.000175
702.420366	1.000194
702.755709	0.999906
703.091002	1.000826
703.426246	1.001051
703.761440	1.000464
704.096584	1.000161
704.431679	0.999335
704.766725	1.000546
705.101721	1.000954
705.436668	1.000574
705.771565	0.999976
706.106413	0.999093
706.441212	1.000536
706.775961	1.000273
707.110661	0.999798
707.445311	1.000602
707.779913	1.001199
708.114465	1.001407
708.448967	1.001746
708.783421	1.000047
709.117825	1.000693
709.452180	0.999832
709.786485	1.000151
710.120742	0.999825
710.454949	1.000145
710.789107	1.000544
711.123216	0.999227
711.457275	0.999555
711.791286	1.000362
712.125247	1.002017
712.459159	0.999753
712.793023	0.999447
713.126837	1.000565
713.460602	1.000032
713.794318	0.999882
714.127985	0.999608
714.461602	1.000565
714.795171	1.000202
715.128691	0.999394
715.462162	1.000938
715.795584	1.000329
716.128957	1.000736
716.462281	1.000415
716.795556	1.000280
717.128782	1.000525
717.461960	1.000108
717.795088	1.000229
718.128167	1.000609
718.461198	1.000042
718.794180	1.000615
719.127113	1.000312
719.459997	0.999555
719.792833	1.000394
720.125619	1.000838
720.458357	1.000340
720.791046	1.000871
721.123686	1.000698
721.456278	1.000688
721.788821	1.000862
722.121315	1.000825
722.453761	0.999959
722.786158	0.999866
723.118506	1.000635
723.450805	0.999534
723.783056	1.000071
724.115259	0.998830
724.447412	1.000308
724.779518	1.000804
725.111574	0.999494
725.443582	1.000227
725.775542	1.000461
726.107453	1.000346
726.439315	1.001491
726.771129	1.001104
727.102895	0.999797
727.434612	0.999572
727.766281	1.000473
728.097901	1.000449
728.429473	1.000564
728.760996	0.999890
729.092471	0.999866
729.423897	1.000554
729.755276	1.000517
730.086606	0.998865
730.417887	1.000306
730.749120	1.000497
731.080305	0.999890
731.411442	0.999575
731.742530	0.998956
732.073570	0.999774
732.404562	1.000376
732.735506	1.000252
733.066401	1.000610
733.397249	1.000998
733.728048	1.000397
734.058798	1.000633
734.389501	1.001504
734.720156	1.001033
735.050762	1.000792
735.381320	1.000222
735.711831	1.000019
736.042293	0.999812
736.372707	1.000832
736.703073	0.999391
737.033391	0.999959
737.363661	1.000068
737.693883	1.000936
738.024056	1.000670
738.354182	1.000787
738.684260	1.000125
739.014290	1.000109
739.344272	0.999690
739.674207	0.999968
740.004093	1.000671
740.333931	1.000213
740.663722	0.999998
740.993464	1.000746
741.323159	0.999723
741.652806	1.000119
741.982405	1.000211
742.311956	1.001749
742.641460	1.000978
742.970915	1.000068
743.300323	1.000869
743.629683	1.000185
743.958996	1.001156
744.288260	0.999733
744.617477	0.999931
744.946647	1.000136
745.275768	1.001144
745.604842	1.000438
745.933869	1.000499
746.262847	1.000871
746.591778	0.999054
746.920662	1.000454
747.249498	1.001614
747.578286	1.000920
747.907027	1.000918
748.235720	1.000631
748.564365	1.000568
748.892963	1.000042
749.221514	1.000466
749.550017	1.000404
749.878473	1.000436
750.206881	1.002661
750.535242	1.000210
750.863555	1.000013
751.191821	1.000104
751.520039	1.000228
751.848210	0.998108
752.176334	0.999910
752.504411	0.999674
752.832440	0.999346
753.160421	1.000968
753.488356	1.000445
753.816243	1.000248
754.144082	0.999639
754.471875	0.999973
754.799620	1.000925
755.127318	1.000310
755.454969	0.999839
755.782572	1.001152
756.110129	1.000382
756.437638	1.002664
756.765100	1.000844
757.092515	0.999302
757.419882	1.000933
757.747203	0.999734
758.074477	1.001769
758.401703	1.000658
758.728882	1.000098
759.056014	1.000046
759.383099	1.000692
759.710138	1.000365
760.037129	1.000059
760.364073	1.000175
760.690970	1.000315
761.017820	0.999500
761.344623	0.999742
761.671379	1.001290
761.998088	1.000319
762.324751	1.000434
762.651366	0.999770
762.977935	0.999877
763.304456	1.000539
763.630931	0.999712
763.957359	0.999593
764.283740	0.999970
764.610074	1.000723
764.936362	1.000026
765.262602	1.000794
765.588796	1.000685
765.914943	1.000859
766.241044	0.999713
766.567097	0.999843
766.893104	1.000202
767.219064	0.999581
767.544978	1.000590
767.870845	1.000797
768.196665	0.999396
768.522438	1.000429
768.848165	1.000476
769.173846	1.001374
769.499479	1.002050
769.825066	1.001061
770.150607	1.000780
770.476101	1.000675
770.801548	1.000249
771.126949	1.000769
771.452303	1.000390
771.777611	1.000127
772.102872	1.000754
772.428087	1.000355
772.753256	1.000310
773.078378	1.000319
773.403453	1.000545
773.728482	1.001175
774.053465	0.999888
774.378401	1.000435
774.703291	1.001619
775.028135	1.000910
775.352932	0.998784
775.677683	1.000841
776.002388	1.000235
776.327046	1.000111
776.651658	1.001145
776.976224	1.000332
777.300743	1.000351
777.625216	1.000902
777.949643	1.000162
778.274024	0.999060
778.598359	1.000441
778.922647	0.999379
779.246889	1.001194
779.571086	0.999821
779.895236	1.000860
780.219339	1.000483
780.543397	0.999549
780.867409	0.999897
781.191374	0.999670
781.515294	1.001075
781.839167	1.000454
782.162995	1.001297
782.486776	1.000707
782.810511	1.001105
783.134201	1.001231
783.457844	1.000477
783.781441	0.999377
784.104993	0.999259
784.428498	1.001188
784.751958	1.000943
785.075372	1.001111
785.398739	0.999948
785.722061	0.999625
786.045337	1.000495
786.368568	1.000475
786.691752	1.000429
787.014891	0.999727
787.337983	0.998766
787.661030	0.999746
787.984031	1.001179
788.306987	1.000386
788.629897	0.999529
788.952760	1.000187
789.275579	1.001179
789.598351	1.000358
789.921078	1.001596
790.243759	0.998648
790.566395	0.999315
790.888984	0.999805
791.211529	1.000149
791.534027	1.000041
791.856480	1.000139
792.178888	1.000390
792.501249	1.000221
792.823566	1.002589
793.145836	0.999898
793.468062	1.000127
793.790241	1.000823
794.112375	0.998940
794.434464	1.000847
794.756507	1.000505
795.078505	1.000707
795.400457	1.000120
795.722364	1.000585
796.044226	1.000269
796.366042	1.000758
796.687812	0.999472
797.009538	0.999173
797.331218	1.001125
797.652852	1.001097
797.974442	0.999560
798.295986	1.000111
798.617484	0.998671
798.938938	1.001304
799.260346	0.999175
799.581709	0.999635
799.903026	1.001877
800.224299	0.999917
800.545526	1.000049
800.866708	0.999822
801.187845	1.000563
801.508936	1.000852
801.829983	0.999674
802.150984	1.000001
802.471940	1.001018
802.792851	0.999967
803.113717	1.000423
803.434538	1.000723
803.755314	1.001012
804.076045	1.001159
804.396731	1.000166
804.717372	0.998550
805.037967	1.000883
805.358518	1.000919
805.679024	0.999511
805.999485	1.000077
806.319901	1.000184
806.640272	1.000975
806.960598	1.000147
807.280879	0.999680
807.601115	1.000864
807.921306	1.002041
808.241453	1.000891
808.561554	1.000187
808.881611	1.000945
809.201623	0.999999
809.521590	1.000418
809.841513	1.001683
810.161390	0.999590
810.481223	0.999446
810.801011	1.000135
811.120755	1.001265
811.440453	1.000189
811.760107	1.001290
812.079716	1.000183
812.399281	1.001586
812.718801	0.999788
813.038276	0.999714
813.357707	0.999627
813.677093	1.001245
813.996434	1.000805
814.315731	1.002355
814.634983	1.000120
814.954191	1.001133
815.273354	0.999241
815.592473	1.000552
815.911547	1.000037
816.230577	1.000009
816.549562	1.001038
816.868502	0.999588
817.187399	1.001955
817.506250	1.001081
817.825058	0.999809
818.143821	1.001178
818.462539	1.000333
818.781213	1.002185
819.099843	1.000859
819.418429	0.999438
819.736970	1.000205
820.055466	1.000215
820.373919	1.000261
820.692327	1.000052
821.010691	1.000623
821.329011	1.000031
821.647286	0.999900
821.965517	1.000990
822.283704	1.001189
822.601847	1.001465
822.919945	1.000533
823.237999	1.001205
823.556010	1.000644
823.873976	1.000696
824.191897	1.001168
824.509775	1.002160
824.827609	1.001163
825.145398	1.000927
825.463144	0.999963
825.780845	0.998824
826.098502	1.000624
826.416116	1.000284
826.733685	1.001364
827.051210	1.000445
827.368692	1.000355
827.686129	1.000299
828.003522	1.001546
828.320872	1.000750
828.638177	1.001624
828.955439	1.000352
829.272656	1.000580
829.589830	0.999552
829.906960	1.001051
830.224046	0.999354
830.541088	1.000238
830.858086	1.000140
831.175041	1.000982
831.491952	1.000034
831.808819	0.998916
832.125642	1.000358
832.442421	1.001879
832.759157	1.002518
833.075849	1.001049
833.392497	1.000562
833.709101	1.000769
834.025662	1.000767
834.342179	1.000837
834.658653	1.001965
834.975083	1.001325
835.291469	1.000804
835.607811	1.000212
835.924110	1.000025
836.240366	1.000886
836.556578	1.000209
836.872746	1.000416
837.188871	1.000743
837.504952	1.001208
837.820990	1.000560
838.136984	0.999915
838.452935	0.999920
838.768842	0.999702
839.084706	1.000156
839.400526	0.998928
839.716303	0.999391
840.032037	1.001954
840.347727	1.000843
840.663373	1.001774
840.978977	1.000728
841.294537	1.000950
841.610054	1.000612
841.925527	1.000729
842.240957	1.001329
842.556344	0.999569
842.871687	1.000740
843.186987	0.999388
843.502244	1.000489
843.817458	0.999031
844.132629	1.000666
844.447756	1.000620
844.762840	0.999290
845.077881	1.000941
845.392879	0.998643
845.707833	1.000388
846.022745	1.000761
846.337613	0.999206
846.652438	0.999554
846.967221	1.000311
847.281960	1.000760
847.596656	1.000682
847.911309	1.000373
848.225919	0.999715
848.540485	0.999712
848.855009	0.999837
849.169490	1.000727
849.483928	1.000357
849.798323	0.999670
850.112675	1.000530
850.426984	0.999809
850.741251	1.000567
851.055474	0.998810
851.369654	1.001000
851.683792	0.998539
851.997887	0.999309
852.311938	1.001225
852.625947	0.999849
852.939914	0.999169
853.253837	1.001435
853.567718	1.001210
853.881555	1.000631
854.195350	1.000566
854.509103	0.999798
854.822812	1.000539
855.136479	1.000650
855.450103	1.000064
855.763685	0.999881
856.077224	1.000150
856.390720	1.000529
856.704173	1.000342
857.017584	1.001124
857.330953	1.001116
857.644278	0.999541
857.957561	1.001024
858.270802	1.001328
858.584000	0.999936
858.897155	1.000062
859.210268	0.999887
859.523339	0.999791
859.836367	1.000043
860.149352	0.998901
860.462295	0.999376
860.775195	1.001184
861.088054	0.999111
861.400869	0.999942
861.713642	0.998753
862.026373	1.000588
862.339062	1.001074
862.651708	0.999589
862.964312	1.000689
863.276873	1.000451
863.589392	1.000850
863.901869	1.000176
864.214303	1.001077
864.526696	1.000275
864.839045	1.000741
865.151353	1.000476
865.463619	0.999911
865.775842	1.000297
866.088023	1.000800
866.400162	1.000144
866.712258	1.001262
867.024313	1.000099
867.336325	1.001270
867.648296	1.001379
867.960224	1.000551
868.272110	1.000742
868.583954	1.000159
868.895755	1.000923
869.207515	1.000545
869.519233	1.001280
869.830909	0.999113
870.142542	0.999505
870.454134	1.000367
870.765684	1.000214
871.077191	1.000701
871.388657	1.000676
871.700081	1.000115
872.011463	1.001196
872.322803	1.000090
872.634101	0.999994
872.945357	1.000313
873.256571	1.000352
873.567744	1.000358
873.878874	1.000628
874.189963	1.000230
874.501010	1.001096
874.812015	0.999876
875.122979	1.001373
875.433900	0.999874
875.744780	1.001576
876.055618	0.999619
876.366415	1.000393
876.677169	1.000118
876.987882	1.000163
877.298554	1.001528
877.609183	1.000508
877.919771	1.000597
878.230317	1.001576
878.540822	1.000238
878.851285	1.001550
879.161707	1.000296
879.472087	1.001288
879.782425	1.000438
880.092722	1.001132
880.402977	1.001055
880.713191	1.000064
881.023363	1.000161
881.333494	1.000341
881.643583	1.002211
881.953631	1.002292
882.263637	1.001521
882.573602	1.002277
882.883526	1.000437
883.193408	1.001626
883.503248	1.000603
883.813048	1.000080
884.122806	0.999789
884.432522	1.000477
884.742197	1.001631
885.051831	1.001078
885.361424	1.000357
885.670975	1.002892
885.980485	0.999951
886.289954	0.999427
886.599382	1.000258
886.908768	1.002017
887.218113	0.999866
887.527417	0.999823
887.836680	1.001667
888.145901	1.001742
888.455082	1.001720
888.764221	1.001438
889.073319	0.999007
889.382376	1.001343
889.691392	0.999979
890.000366	1.001226
890.309300	1.000851
890.618193	1.000452
890.927044	0.999572
891.235855	0.999573
891.544625	1.000388
891.853353	1.000565
892.162041	1.000396
892.470687	1.001337
892.779293	1.000254
893.087858	1.000367
893.396381	1.000422
893.704864	1.000239
894.013306	1.001437
894.321707	1.002353
894.630068	1.000572
894.938387	1.001388
895.246665	1.001109
895.554903	1.000414
895.863100	1.000583
896.171256	1.000685
896.479371	1.001464
896.787446	1.000099
897.095480	1.000990
897.403473	1.001033
897.711425	1.000910
898.019336	1.000623
898.327207	1.000448
898.635038	0.999438
898.942827	1.001427
899.250576	1.000721
899.558284	1.001006
899.865952	0.998258
900.173579	0.999939
900.481165	1.000123
900.788711	0.999290
901.096216	1.000132
901.403681	0.999877
901.711105	0.999819
902.018489	0.999981
902.325832	0.999955
902.633135	0.999899
902.940397	1.000925
903.247619	1.000394
903.554800	0.999751
903.861941	1.001014
904.169041	1.001507
904.476101	1.002702
904.783121	1.001309
905.090100	1.001161
905.397039	1.001907
905.703938	1.000686
906.010796	1.000156
906.317614	1.001319
906.624391	1.000322
906.931129	1.000414
907.237826	1.001339
907.544483	1.001087
907.851099	0.999621
908.157675	1.000367
908.464211	1.001104
908.770707	1.000316
909.077163	0.999269
909.383578	1.000085
909.689954	1.000151
909.996289	1.000202
910.302584	1.001406
910.608839	1.001427
910.915054	1.000377
911.221229	1.001138
911.527363	0.999559
911.833458	1.000720
912.139513	1.001523
912.445527	1.000561
912.751502	1.001559
913.057436	0.999147
913.363331	1.000665
913.669186	1.002082
913.975000	1.000874
914.280775	1.000093
914.586510	1.001120
914.892205	0.999791
915.197859	1.001008
915.503475	1.001039
915.809050	1.001065
916.114585	1.000473
916.420081	1.001648
916.725536	1.001657
917.030952	1.000680
917.336328	1.000520
917.641665	1.000347
917.946961	1.000022
918.252218	0.999890
918.557435	1.000746
918.862612	1.000699
919.167750	1.000381
919.472848	1.001175
919.777906	1.001251
920.082925	1.001568
920.387904	1.001290
920.692843	0.999682
920.997743	1.000436
921.302603	1.000448
921.607423	0.999363
921.912204	1.000026
922.216946	1.001349
922.521647	0.999873
922.826310	1.000607
923.130932	1.001511
923.435516	0.999741
923.740059	1.001036
924.044564	1.000295
924.349028	1.000011
924.653454	0.999564
924.957840	1.000045
925.262186	1.001181
925.566493	0.999450
925.870761	1.000020
926.174989	0.999365
926.479178	1.000578
926.783328	1.000831
927.087438	0.999541
927.391509	0.999762
927.695541	1.000241
927.999533	0.999812
928.303486	0.999479
928.607400	1.000258
928.911275	1.001743
929.215110	1.001014
929.518906	1.001084
929.822663	1.001156
930.126381	1.000872
930.430060	1.000317
930.733699	1.000048
931.037299	1.001052
931.340861	1.000578
931.644383	0.999881
931.947866	1.001022
932.251309	1.000229
932.554714	1.000459
932.858080	1.000137
933.161407	0.999916
933.464694	1.001273
933.767943	1.000456
934.071153	1.001003
934.374323	1.002183
934.677455	1.000705
934.980548	1.000094
935.283602	1.000868
935.586617	1.000308
935.889593	1.001843
936.192530	1.000890
936.495428	0.999959
936.798287	0.999599
937.101108	1.000564
937.403890	1.000565
937.706632	1.001938
938.009336	1.000188
938.312002	1.000208
938.614628	1.000194
938.917216	1.000260
939.219765	0.999659
939.522275	1.001534
939.824747	1.000128
940.127179	1.000226
940.429573	1.001370
940.731929	1.000821
941.034246	1.000080
941.336524	1.000445
941.638763	0.999281
941.940964	0.999858
942.243126	1.000043
942.545250	1.001164
942.847335	0.999754
943.149381	1.000786
943.451389	0.999709
943.753359	0.999174
944.055290	1.000807
944.357182	1.000417
944.659036	1.001346
944.960851	1.000067
945.262628	1.001057
945.564367	0.999881
945.866067	1.000994
946.167729	0.999515
946.469352	0.999896
946.770937	0.998717
947.072484	1.001080
947.373992	0.999276
947.675462	1.000225
947.976893	1.000955
948.278286	1.001474
948.579641	1.001102
948.880958	0.999503
949.182236	1.000242
949.483476	0.999815
949.784678	1.000549
950.085841	1.000422
950.386967	0.999766
950.688054	0.999795
950.989103	0.998893
951.290114	0.999170
951.591087	1.000907
951.892021	0.999891
952.192917	1.000128
952.493776	1.000072
952.794596	1.000569
953.095378	1.000063
953.396122	1.000440
953.696828	1.001261
953.997496	1.000576
954.298126	1.000801
954.598718	1.000406
954.899272	1.000799
955.199788	0.999004
955.500266	1.001090
955.800706	1.000792
956.101108	1.000415
956.401472	1.001870
956.701798	0.999787
957.002087	1.001090
957.302337	1.000103
957.602550	1.000163
957.902724	1.000804
958.202861	1.000363
958.502960	0.999600
958.803022	1.000748
959.103045	1.000120
959.403031	1.001194
959.702979	1.001934
960.002889	1.000678
960.302762	1.000158
960.602596	1.000885
960.902393	1.000176
961.202153	1.000339
961.501875	1.000591
961.801559	1.000240
962.101205	0.999838
962.400814	1.001016
962.700385	1.000607
962.999918	1.001302
963.299414	0.999025
963.598873	1.000716
963.898293	0.999219
964.197677	0.998509
964.497022	1.001072
964.796331	1.000630
965.095601	1.000192
965.394835	1.000015
965.694030	1.000474
965.993189	0.998671
966.292309	0.999815
966.591393	0.998469
966.890439	1.000579
967.189447	0.999421
967.488419	1.000667
967.787353	1.000125
968.086249	0.999461
968.385108	0.999641
968.683930	1.001185
968.982714	1.000846
969.281462	0.999987
969.580172	0.999527
969.878844	1.000331
970.177480	1.000548
970.476078	1.000940
970.774639	1.000665
971.073162	1.000278
971.371649	1.000368
971.670098	0.998601
971.968510	0.999266
972.266885	0.998923
972.565223	0.999788
972.863524	0.999084
973.161788	1.000109
973.460014	1.000188
973.758204	0.999114
974.056356	1.000093
974.354471	0.999206
974.652550	1.000261
974.950591	0.999321
975.248595	1.000508
975.546563	1.000386
975.844493	1.001143
976.142386	0.999694
976.440243	1.000935
976.738062	1.000299
977.035845	0.998674
977.333590	1.000735
977.631299	0.999865
977.928971	1.000168
978.226606	1.000754
978.524204	0.998639
978.821765	1.000691
979.119290	1.001549
979.416777	0.999087
979.714228	0.999967
980.011642	1.000890
980.309020	1.000510
980.606360	1.000064
980.903664	1.000124
981.200931	0.999974
981.498162	1.000071
981.795356	1.000548
982.092513	0.999724
982.389633	0.999875
982.686717	0.999516
982.983764	1.000475
983.280775	1.000495
983.577749	1.001080
983.874686	0.999799
984.171587	0.999096
984.468451	1.000038
984.765279	1.001737
985.062070	0.999802
985.358824	1.000101
985.655543	1.000075
985.952224	1.001881
986.248869	0.999640
986.545478	1.001230
986.842050	0.999466
987.138586	1.000140
987.435086	0.999544
987.731549	1.001219
988.027975	1.001154
988.324366	0.999460
988.620719	1.001534
988.917037	1.000921
989.213318	1.000808
989.509563	1.000788
989.805772	1.001002
990.101944	1.000509
990.398080	0.999774
990.694180	1.000305
990.990244	1.001033
991.286271	1.000225
991.582262	1.001643
991.878217	0.999487
992.174136	1.000667
992.470019	1.000640
992.765865	1.002018
993.061676	1.000655
993.357450	1.000171
993.653188	1.000660
993.948890	0.999642
994.244556	0.999965
994.540186	1.000576
994.835780	1.001284
995.131337	1.000604
995.426859	1.001547
995.722345	1.000190
996.017795	1.000176
996.313208	1.001209
996.608586	1.000369
996.903928	1.000140
997.199234	0.999951
997.494504	1.001267
997.789738	0.998913
998.084936	1.000132
998.380099	0.999323
998.675225	1.000038
998.970316	1.000587
999.265371	1.000006
999.560390	0.999753
999.855373	1.000297
1000.150320	1.000246
1000.445232	0.999291
1000.740108	0.999798
1001.034948	1.000076
1001.329752	0.999965
1001.624521	0.999514
1001.919254	0.999911
1002.213951	1.000716
1002.508613	1.000151
1002.803239	1.000178
1003.097829	1.001287
1003.392384	0.998879
1003.686903	0.999729
1003.981386	0.999804
1004.275834	1.000544
1004.570246	0.998982
1004.864623	1.001541
1005.158964	1.000947
1005.453270	1.000680
1005.747540	1.001050
1006.041775	1.001012
1006.335974	1.000899
1006.630138	1.001039
1006.924266	0.999156
1007.218359	0.998474
1007.512416	1.001325
1007.806438	1.000403
1008.100425	1.000282
1008.394376	1.001376
1008.688292	0.999975
1008.982172	1.000082
1009.276017	1.000735
1009.569827	1.000640
1009.863602	0.999781
1010.157341	1.000386
1010.451045	0.998515
1010.744714	1.001025
1011.038347	1.001186
1011.331945	0.999638
1011.625508	1.000258
1011.919036	0.999537
1012.212528	1.000709
1012.505986	1.000373
1012.799408	1.001686
1013.092795	1.000981
1013.386147	1.000014
1013.679464	1.000141
1013.972745	1.000028
1014.265992	0.999822
1014.559204	1.000073
1014.852380	1.000761
1015.145521	1.001092
1015.438628	0.999834
1015.731699	1.000395
1016.024736	1.001183
1016.317737	0.999408
1016.610703	1.000856
1016.903635	1.001479
1017.196531	0.999649
1017.489393	0.999521
1017.782219	0.999694
1018.075011	0.998377
1018.367768	0.999495
1018.660490	1.001022
1018.953177	1.001022
1019.245829	1.001022
