Dividing Wavelength (nm)	Counts (n)	Blue Motor Position (mm): 47.100000	Red Motor Position (mm): 0.000000	
326.493990	1.000125
326.888308	1.000125
327.282561	1.000125
327.676750	0.999950
328.070874	1.000426
328.464933	1.001379
328.858929	1.001970
329.252859	1.000035
329.646726	1.001441
330.040528	1.000773
330.434265	1.000667
330.827938	0.999700
331.221547	1.000563
331.615091	1.001023
332.008571	1.001442
332.401986	1.000372
332.795338	0.999947
333.188625	1.001323
333.581847	0.999886
333.975006	1.000898
334.368100	1.001435
334.761129	1.000164
335.154095	1.000816
335.546996	1.000755
335.939833	0.999737
336.332606	1.001168
336.725315	1.000169
337.117960	1.001845
337.510540	0.999019
337.903056	0.999497
338.295508	1.001179
338.687896	1.000248
339.080220	0.999294
339.472480	0.999431
339.864676	1.001594
340.256807	0.998833
340.648875	1.001300
341.040879	1.000033
341.432818	1.001096
341.824694	1.000319
342.216506	1.001801
342.608253	1.001277
342.999937	1.000882
343.391557	1.001156
343.783113	1.001605
344.174605	1.000308
344.566033	0.999437
344.957397	1.000168
345.348697	1.001665
345.739934	1.000324
346.131106	1.001414
346.522215	0.999436
346.913260	1.001142
347.304241	0.999333
347.695159	1.001026
348.086012	0.999603
348.476802	1.000863
348.867528	0.998460
349.258191	1.001853
349.648789	1.000889
350.039324	1.000214
350.429796	0.999035
350.820203	0.998028
351.210548	1.001352
351.600828	0.998984
351.991045	1.000339
352.381198	0.999931
352.771288	1.000937
353.161314	1.000903
353.551276	1.000300
353.941175	0.998494
354.331010	1.001037
354.720782	1.000083
355.110490	1.000264
355.500135	1.000632
355.889717	0.998748
356.279235	0.999767
356.668689	1.001079
357.058080	1.000562
357.447408	0.999287
357.836672	0.998801
358.225873	0.999537
358.615010	0.999936
359.004084	0.999325
359.393095	1.000874
359.782043	0.999078
360.170927	1.000521
360.559748	1.000848
360.948505	0.999790
361.337199	0.999289
361.725830	1.000484
362.114398	0.999956
362.502903	0.998281
362.891344	0.998727
363.279722	1.000217
363.668037	0.999929
364.056289	0.999551
364.444478	1.001282
364.832603	1.000097
365.220665	0.999611
365.608665	0.999658
365.996601	0.998308
366.384474	0.998183
366.772284	1.000144
367.160031	0.998855
367.547715	0.998574
367.935336	0.998828
368.322893	0.996493
368.710388	0.996083
369.097820	0.994741
369.485189	0.992061
369.872495	0.991256
370.259738	0.989566
370.646918	0.987776
371.034035	0.986127
371.421090	0.983006
371.808081	0.979540
372.195010	0.978243
372.581875	0.974677
372.968678	0.972730
373.355418	0.970857
373.742096	0.966279
374.128710	0.965267
374.515262	0.963657
374.901751	0.962497
375.288177	0.959718
375.674540	0.958319
376.060841	0.956263
376.447079	0.954720
376.833254	0.953951
377.219367	0.953533
377.605417	0.949802
377.991404	0.951487
378.377329	0.950541
378.763191	0.950529
379.148991	0.950168
379.534727	0.948623
379.920402	0.948726
380.306013	0.950739
380.691563	0.949997
381.077049	0.951245
381.462474	0.953026
381.847835	0.952113
382.233134	0.956079
382.618371	0.958565
383.003545	0.958051
383.388657	0.960621
383.773706	0.961533
384.158693	0.964688
384.543618	0.967172
384.928480	0.968907
385.313280	0.970805
385.698017	0.971727
386.082692	0.972891
386.467305	0.974397
386.851856	0.980153
387.236344	0.980560
387.620770	0.982972
388.005133	0.984364
388.389435	0.984623
388.773674	0.987236
389.157851	0.988150
389.541965	0.990382
389.926018	0.991476
390.310008	0.993512
390.693936	0.994653
391.077802	0.994951
391.461606	0.994883
391.845348	0.997139
392.229027	0.996968
392.612645	0.997432
392.996200	0.998417
393.379694	0.997028
393.763125	0.999036
394.146494	0.998132
394.529801	0.999257
394.913047	0.998672
395.296230	0.999162
395.679351	0.999465
396.062410	1.000351
396.445408	1.000584
396.828343	1.000986
397.211217	0.999512
397.594028	0.999141
397.976778	0.999754
398.359466	1.000384
398.742092	1.000731
399.124656	1.000152
399.507158	1.000481
399.889598	1.000630
400.271977	1.000620
400.654294	1.000226
401.036549	1.000699
401.418742	1.001086
401.800874	1.000046
402.182944	0.999533
402.564952	1.000314
402.946898	1.000836
403.328783	1.001443
403.710606	1.000015
404.092367	1.000271
404.474067	1.002079
404.855705	1.001884
405.237282	1.000171
405.618797	1.000469
406.000250	1.000347
406.381642	1.001141
406.762972	1.001546
407.144240	1.000742
407.525447	0.999499
407.906593	0.999738
408.287677	1.000570
408.668700	1.000509
409.049661	1.000397
409.430560	0.999904
409.811399	1.000069
410.192176	1.000322
410.572891	1.001068
410.953545	1.000263
411.334138	1.000806
411.714669	1.000544
412.095139	1.001234
412.475547	1.001345
412.855894	1.000751
413.236180	1.000925
413.616405	0.999366
413.996568	1.000454
414.376670	1.000835
414.756711	1.000548
415.136691	1.000200
415.516609	1.000117
415.896466	1.001714
416.276262	1.000252
416.655997	1.001105
417.035670	1.000619
417.415283	1.000689
417.794834	1.000389
418.174324	1.001054
418.553753	1.000509
418.933121	1.000467
419.312428	1.001400
419.691674	1.001760
420.070859	1.001244
420.449983	1.001161
420.829045	1.000562
421.208047	1.001298
421.586988	1.000189
421.965867	0.999452
422.344686	1.000668
422.723444	1.000976
423.102141	1.001698
423.480777	1.000297
423.859352	1.000594
424.237866	1.000061
424.616319	1.001013
424.994712	1.001274
425.373044	1.000696
425.751314	1.000540
426.129524	1.002092
426.507673	0.999549
426.885762	1.000025
427.263789	1.000026
427.641756	1.000026
428.019662	1.001170
428.397508	1.001161
428.775292	1.000704
429.153016	1.000134
429.530679	1.000592
429.908282	1.001298
430.285824	1.000082
430.663305	1.000960
431.040726	1.000467
431.418086	1.001057
431.795385	1.001574
432.172624	1.001372
432.549802	1.000542
432.926920	1.000711
433.303977	1.000542
433.680974	1.001015
434.057910	1.000450
434.434786	1.000514
434.811601	1.001276
435.188355	1.001528
435.565050	1.001597
435.941683	1.000013
436.318257	0.999934
436.694770	1.000871
437.071222	1.000900
437.447614	1.001095
437.823946	1.000964
438.200218	1.000627
438.576429	1.000449
438.952580	1.000711
439.328670	0.999770
439.704700	1.000288
440.080670	1.000809
440.456580	1.000509
440.832429	1.000193
441.208218	1.000924
441.583947	1.000986
441.959616	0.999711
442.335224	1.001162
442.710773	1.001213
443.086261	1.000913
443.461689	1.000393
443.837057	1.000986
444.212365	1.001273
444.587612	1.001862
444.962800	1.001198
445.337927	1.000973
445.712995	1.000651
446.088002	1.000394
446.462949	1.000587
446.837837	1.001956
447.212664	1.000345
447.587431	1.001008
447.962139	1.000779
448.336786	1.000121
448.711374	1.000297
449.085901	1.000481
449.460369	1.001450
449.834776	1.000133
450.209124	1.000948
450.583412	1.001526
450.957640	1.001054
451.331808	1.001700
451.705917	1.000270
452.079965	1.000942
452.453954	1.001884
452.827883	1.001251
453.201752	1.000948
453.575562	1.000131
453.949311	1.001428
454.323001	1.000788
454.696632	1.001099
455.070202	1.000071
455.443713	1.000429
455.817164	1.000564
456.190556	1.000925
456.563888	1.001926
456.937160	1.000548
457.310373	1.000292
457.683526	1.001027
458.056619	1.000786
458.429653	1.001080
458.802628	1.000718
459.175542	1.001380
459.548398	1.000638
459.921194	1.001161
460.293930	1.001569
460.666607	1.001474
461.039224	1.001317
461.411782	1.000840
461.784280	1.000913
462.156719	1.001431
462.529099	1.000464
462.901419	1.000607
463.273680	1.000869
463.645882	1.000690
464.018024	1.001238
464.390106	1.000876
464.762130	1.000856
465.134094	1.001601
465.505999	1.001275
465.877845	1.001655
466.249631	1.001134
466.621358	0.999992
466.993026	1.000576
467.364634	1.001105
467.736184	1.001380
468.107674	1.001573
468.479105	1.001010
468.850477	1.000903
469.221790	1.001326
469.593043	1.000650
469.964238	1.000960
470.335373	1.000241
470.706449	1.000392
471.077467	1.001047
471.448425	1.000517
471.819324	1.000645
472.190164	1.000985
472.560945	1.000811
472.931667	1.000605
473.302330	1.000903
473.672934	1.001435
474.043479	1.000529
474.413965	1.000893
474.784393	1.000635
475.154761	1.000930
475.525070	1.001294
475.895321	1.000885
476.265513	1.001487
476.635645	1.001411
477.005719	1.000964
477.375734	1.000492
477.745691	1.001055
478.115588	1.000698
478.485427	1.001364
478.855207	1.000907
479.224928	1.000822
479.594591	1.001263
479.964194	1.001074
480.333739	1.001482
480.703226	1.001076
481.072653	1.000328
481.442022	1.001233
481.811333	1.001069
482.180584	1.000895
482.549777	1.000839
482.918912	1.001203
483.287988	1.001023
483.657005	1.000563
484.025964	1.001247
484.394864	1.001009
484.763706	1.000776
485.132489	1.001023
485.501213	1.000964
485.869879	1.000889
486.238487	0.999969
486.607036	1.001657
486.975527	1.000999
487.343959	1.000838
487.712333	1.001220
488.080648	1.001019
488.448905	1.001121
488.817104	1.000163
489.185244	1.001330
489.553326	1.000126
489.921350	1.000964
490.289315	1.001171
490.657222	1.000020
491.025070	1.001035
491.392861	1.000839
491.760593	1.000517
492.128267	1.000452
492.495883	0.999926
492.863440	1.000714
493.230939	1.000347
493.598380	1.001158
493.965763	1.000355
494.333088	1.000188
494.700354	1.000410
495.067563	0.999931
495.434713	1.000913
495.801805	1.000444
496.168839	1.001101
496.535815	1.000862
496.902733	1.000935
497.269593	0.999965
497.636395	1.000197
498.003139	1.000636
498.369825	1.001239
498.736453	1.001021
499.103023	1.000917
499.469535	1.000917
499.835989	1.000798
500.202385	1.000495
500.568723	1.000637
500.935003	1.001166
501.301226	1.000945
501.667390	1.000470
502.033497	1.000374
502.399546	1.000978
502.765537	1.001261
503.131470	1.000757
503.497345	1.000911
503.863163	1.000758
504.228923	1.000364
504.594625	1.000769
504.960269	1.000851
505.325856	1.001698
505.691385	1.000518
506.056856	1.000260
506.422270	1.000824
506.787625	1.001152
507.152924	1.001065
507.518164	1.000687
507.883347	1.000098
508.248472	1.000807
508.613540	1.000186
508.978550	1.000509
509.343503	1.000346
509.708398	1.000857
510.073236	1.000763
510.438016	0.999995
510.802738	1.000038
511.167403	1.001134
511.532010	1.001478
511.896561	1.001320
512.261053	1.000662
512.625488	1.000834
512.989866	1.000730
513.354186	1.000534
513.718449	1.001032
514.082655	0.999823
514.446803	1.000525
514.810894	1.001262
515.174927	1.001187
515.538904	1.000671
515.902822	1.001189
516.266684	1.001062
516.630488	1.000800
516.994235	1.001098
517.357925	1.001565
517.721558	1.000786
518.085133	1.000270
518.448651	1.000366
518.812112	1.001339
519.175516	1.000834
519.538863	1.000696
519.902152	1.001077
520.265385	1.000476
520.628560	1.000716
520.991678	1.000418
521.354739	1.001142
521.717743	1.000826
522.080690	1.000636
522.443580	1.001125
522.806413	1.000513
523.169189	1.001282
523.531908	1.000703
523.894569	1.001117
524.257174	1.000814
524.619722	1.001062
524.982213	1.001105
525.344647	1.000614
525.707025	1.000284
526.069345	1.000656
526.431608	1.000750
526.793815	1.000962
527.155964	1.001898
527.518057	1.001051
527.880093	1.000982
528.242072	1.001037
528.603995	1.000768
528.965860	1.001066
529.327669	1.000992
529.689421	1.000418
530.051117	1.000613
530.412755	1.000600
530.774337	1.000879
531.135862	1.001300
531.497331	1.000307
531.858743	1.001177
532.220098	1.000284
532.581396	1.001109
532.942638	1.001183
533.303824	1.001722
533.664953	1.000568
534.026025	1.001137
534.387040	1.000831
534.747999	1.000469
535.108902	1.000673
535.469748	1.001668
535.830537	1.000795
536.191270	1.000902
536.551947	1.000332
536.912567	1.001081
537.273131	1.001025
537.633638	1.000237
537.994089	1.000759
538.354483	1.000824
538.714821	1.000901
539.075103	1.000798
539.435328	1.001326
539.795497	1.000876
540.155609	1.000992
540.515665	1.000588
540.875665	1.000963
541.235609	1.000513
541.595496	1.000774
541.955328	1.000956
542.315102	1.000365
542.674821	1.000942
543.034483	1.000610
543.394090	1.000360
543.753640	1.000988
544.113134	1.000431
544.472571	1.001279
544.831953	1.001288
545.191278	1.000985
545.550548	1.000721
545.909761	1.000224
546.268918	1.001360
546.628019	1.001614
546.987064	1.001188
547.346053	1.000659
547.704986	1.000361
548.063863	1.000988
548.422684	1.001426
548.781449	1.001647
549.140158	1.001730
549.498811	1.000766
549.857408	0.999934
550.215949	0.999920
550.574434	1.000863
550.932864	1.001506
551.291237	1.000537
551.649555	1.001666
552.007817	1.000868
552.366022	1.001137
552.724173	1.001027
553.082267	1.000523
553.440305	1.001157
553.798288	1.000202
554.156215	1.000823
554.514086	1.001372
554.871902	1.000782
555.229661	1.000283
555.587365	1.001206
555.945014	1.001121
556.302606	1.000385
556.660143	1.000492
557.017625	1.000621
557.375050	1.000581
557.732421	1.001052
558.089735	1.000762
558.446994	1.000119
558.804197	1.000280
559.161345	1.000306
559.518437	1.000764
559.875474	1.001000
560.232455	1.000788
560.589381	1.001262
560.946251	1.000266
561.303065	1.000786
561.659825	1.000692
562.016528	1.000813
562.373177	1.000203
562.729770	1.000896
563.086307	1.000201
563.442789	1.000943
563.799216	1.000124
564.155587	1.000567
564.511904	1.001353
564.868164	1.000201
565.224370	1.000734
565.580520	1.000772
565.936615	1.000677
566.292654	1.000890
566.648638	1.001315
567.004567	1.001180
567.360441	1.000907
567.716260	1.000666
568.072023	1.000422
568.427732	1.001099
568.783385	1.000833
569.138982	1.000634
569.494525	1.000686
569.850013	1.001414
570.205445	1.000217
570.560823	1.000790
570.916145	1.001230
571.271412	1.001044
571.626625	1.000889
571.981782	1.001140
572.336884	1.000940
572.691931	1.000699
573.046923	1.001202
573.401860	1.000509
573.756743	1.001374
574.111570	1.000566
574.466342	1.001416
574.821059	1.000206
575.175722	1.001742
575.530330	1.000594
575.884882	1.000636
576.239380	1.000374
576.593823	1.000829
576.948211	1.001020
577.302544	1.000801
577.656823	1.000584
578.011047	1.000464
578.365216	1.001489
578.719330	1.001033
579.073389	1.000154
579.427394	1.000910
579.781344	1.001374
580.135239	0.999865
580.489080	1.001044
580.842866	1.000881
581.196597	1.000004
581.550273	1.000119
581.903895	1.001154
582.257463	1.000148
582.610975	1.000370
582.964434	1.001818
583.317837	1.001082
583.671186	1.000906
584.024481	1.000755
584.377721	0.999482
584.730906	1.000278
585.084037	1.001493
585.437113	1.001415
585.790135	1.000358
586.143103	1.000297
586.496016	1.000248
586.848874	1.000683
587.201679	1.000393
587.554428	1.000618
587.907124	1.000884
588.259765	1.001318
588.612352	1.000713
588.964884	1.001591
589.317362	1.000250
589.669786	1.000787
590.022155	1.000017
590.374470	1.000909
590.726731	1.000265
591.078937	1.000752
591.431090	1.000194
591.783188	0.999991
592.135232	1.001661
592.487222	1.000622
592.839157	1.000248
593.191038	1.000842
593.542866	1.000837
593.894639	0.999913
594.246358	1.001181
594.598022	1.000628
594.949633	1.000735
595.301190	1.000654
595.652692	0.999821
596.004141	1.000265
596.355535	0.999955
596.706876	1.000413
597.058162	1.000205
597.409395	1.000501
597.760573	1.000083
598.111698	1.000753
598.462768	1.000003
598.813785	1.000135
599.164748	1.000574
599.515657	1.000524
599.866511	1.000972
600.217312	1.001099
600.568060	1.000289
600.918753	1.001296
601.269392	1.000880
601.619978	1.000820
601.970510	1.000347
602.320988	1.000103
602.671412	1.000672
603.021783	1.001498
603.372100	1.001726
603.722363	1.000607
604.072572	1.000722
604.422728	1.000200
604.772830	1.000633
605.122878	1.000879
605.472872	1.001157
605.822813	0.999941
606.172701	1.000746
606.522534	1.000729
606.872314	1.001286
607.222041	1.000768
607.571714	1.000617
607.921333	1.000113
608.270899	1.000211
608.620411	1.000705
608.969870	1.001217
609.319276	1.000873
609.668627	1.001399
610.017926	0.999425
610.367171	1.000867
610.716362	1.000113
611.065500	1.000825
611.414585	1.000061
611.763616	0.999593
612.112594	1.000570
612.461518	1.000703
612.810389	1.000367
613.159207	1.000606
613.507971	0.999899
613.856682	1.000817
614.205340	0.999619
614.553945	1.001196
614.902496	1.000164
615.250994	1.000138
615.599439	1.000395
615.947830	0.999695
616.296169	1.000153
616.644454	1.000595
616.992686	1.000615
617.340864	1.001302
617.688990	0.999753
618.037063	1.001173
618.385082	1.000226
618.733048	1.000293
619.080961	1.000776
619.428821	1.000854
619.776628	0.999604
620.124382	1.001601
620.472083	1.000557
620.819731	1.001515
621.167326	1.000079
621.514868	1.001103
621.862357	1.000557
622.209793	1.000244
622.557176	1.000261
622.904506	1.000464
623.251783	0.999689
623.599007	1.001066
623.946179	0.999825
624.293297	1.000827
624.640363	1.000733
624.987376	0.999362
625.334336	1.000691
625.681243	1.001557
626.028097	1.001033
626.374899	1.000711
626.721647	1.001755
627.068343	1.000266
627.414987	1.000483
627.761577	0.999409
628.108115	1.000203
628.454600	1.000712
628.801032	1.001075
629.147412	1.000257
629.493739	1.001401
629.840014	1.000620
630.186236	0.999871
630.532405	1.001028
630.878521	0.999516
631.224585	1.000331
631.570597	0.999731
631.916556	0.999917
632.262462	0.998915
632.608316	1.001246
632.954117	0.999570
633.299866	0.999752
633.645562	1.000762
633.991206	0.999983
634.336797	1.000240
634.682336	0.999941
635.027823	1.000023
635.373257	1.000149
635.718639	1.000404
636.063968	1.000578
636.409245	1.000635
636.754470	1.000657
637.099642	1.000681
637.444762	1.000984
637.789829	1.000304
638.134845	1.000077
638.479808	1.000241
638.824719	1.000463
639.169577	1.000007
639.514383	1.000081
639.859137	1.000674
640.203839	1.000489
640.548489	0.999838
640.893086	0.999888
641.237632	1.000905
641.582125	1.000359
641.926566	1.000399
642.270955	1.000851
642.615292	0.999951
642.959576	0.999643
643.303809	1.000980
643.647990	1.000713
643.992118	1.001639
644.336195	0.999640
644.680219	1.000436
645.024192	1.000075
645.368112	0.999942
645.711981	0.999160
646.055797	1.000490
646.399562	0.999819
646.743274	1.000188
647.086935	1.000138
647.430544	1.000413
647.774101	0.999865
648.117606	1.000472
648.461059	1.000817
648.804460	0.999910
649.147810	1.000052
649.491108	0.999939
649.834354	0.999793
650.177548	1.000334
650.520690	1.000452
650.863781	0.999557
651.206820	0.999745
651.549807	0.999293
651.892742	1.000746
652.235626	1.000459
652.578458	0.999840
652.921238	1.000321
653.263967	1.000529
653.606644	1.000496
653.949269	1.001328
654.291843	0.999518
654.634365	1.000788
654.976836	0.999487
655.319255	1.000498
655.661622	1.000381
656.003938	0.999961
656.346203	1.000183
656.688416	1.000047
657.030577	0.999458
657.372687	1.000321
657.714746	0.999818
658.056753	0.999184
658.398708	0.999610
658.740612	1.000777
659.082465	1.000294
659.424266	1.000101
659.766016	0.999991
660.107715	1.000124
660.449362	0.999948
660.790958	0.998990
661.132503	1.000734
661.473996	0.999565
661.815438	1.000062
662.156829	0.999995
662.498168	1.001303
662.839456	0.999454
663.180693	0.999961
663.521879	1.000417
663.863013	0.999800
664.204097	0.999849
664.545129	1.000002
664.886110	1.000387
665.227040	0.999466
665.567918	0.999692
665.908746	0.999494
666.249522	0.999058
666.590248	0.999484
666.930922	0.999431
667.271545	0.999804
667.612118	0.999552
667.952639	0.999984
668.293109	0.998984
668.633528	0.999935
668.973896	1.000292
669.314213	0.998723
669.654480	0.999314
669.994695	0.999246
670.334859	0.999258
670.674973	0.999499
671.015035	0.999774
671.355047	1.000074
671.695008	0.999518
672.034918	0.999630
672.374777	0.999775
672.714585	0.999621
673.054342	1.000006
673.394049	0.999911
673.733705	0.999646
674.073310	1.000179
674.412864	0.999567
674.752368	0.999334
675.091820	1.000655
675.431223	1.000496
675.770574	0.999083
676.109875	0.999861
676.449125	0.999568
676.788324	0.999358
677.127473	1.000634
677.466571	0.999920
677.805619	1.000097
678.144616	1.000244
678.483562	0.999907
678.822458	1.000425
679.161303	0.999031
679.500098	1.000596
679.838842	0.999974
680.177535	0.999711
680.516179	0.998544
680.854771	0.999398
681.193314	0.999626
681.531805	0.999995
681.870247	0.999703
682.208638	1.000328
682.546978	0.998909
682.885268	0.999433
683.223508	0.998615
683.561697	0.998979
683.899836	0.999711
684.237925	0.998767
684.575963	0.999069
684.913951	0.999776
685.251889	0.999775
685.589776	0.999164
685.927614	0.999664
686.265401	0.999309
686.603137	0.999551
686.940824	0.999605
687.278460	0.999295
687.616046	0.999117
687.953582	0.999437
688.291068	1.000055
688.628504	0.999094
688.965889	0.999137
689.303224	0.997805
689.640510	0.999095
689.977745	0.999314
690.314930	0.998921
690.652065	0.999704
690.989150	0.999427
691.326185	0.999146
691.663170	0.999518
692.000105	1.000234
692.336990	0.999537
692.673825	0.998989
693.010610	0.999742
693.347345	0.999497
693.684030	1.000156
694.020665	0.998815
694.357251	0.999133
694.693786	0.999899
695.030272	0.998207
695.366707	0.998502
695.703093	0.999203
696.039429	0.997495
696.375716	0.999219
696.711952	0.998935
697.048139	0.998114
697.384276	0.999393
697.720363	0.999441
698.056400	0.997831
698.392388	0.998873
698.728326	0.998965
699.064214	0.999359
699.400053	0.998892
699.735842	0.999605
700.071581	0.999336
700.407270	0.998496
700.742910	0.999666
701.078501	0.998813
701.414042	0.999561
701.749533	0.998450
702.084974	0.999759
702.420366	0.999592
702.755709	0.999139
703.091002	0.999083
703.426246	0.999230
703.761440	0.998583
704.096584	0.999219
704.431679	0.999596
704.766725	0.998728
705.101721	0.999495
705.436668	0.997927
705.771565	0.999144
706.106413	0.997848
706.441212	0.999384
706.775961	0.999084
707.110661	0.997980
707.445311	0.999937
707.779913	0.999499
708.114465	0.999858
708.448967	1.000006
708.783421	0.999667
709.117825	0.999170
709.452180	0.998914
709.786485	0.998827
710.120742	0.998282
710.454949	0.998652
710.789107	0.998463
711.123216	0.997795
711.457275	0.998322
711.791286	0.999705
712.125247	1.000160
712.459159	0.999179
712.793023	0.999242
713.126837	0.999598
713.460602	0.998681
713.794318	0.997998
714.127985	0.998520
714.461602	0.998338
714.795171	0.998850
715.128691	0.998725
715.462162	0.999768
715.795584	0.999554
716.128957	0.999499
716.462281	0.998903
716.795556	0.998184
717.128782	0.999307
717.461960	0.998960
717.795088	0.998797
718.128167	1.000155
718.461198	0.998993
718.794180	0.999839
719.127113	0.999445
719.459997	0.998620
719.792833	0.998942
720.125619	0.998692
720.458357	0.998476
720.791046	0.999393
721.123686	0.999773
721.456278	0.998486
721.788821	0.998420
722.121315	1.000760
722.453761	0.999808
722.786158	0.998730
723.118506	0.998339
723.450805	0.998955
723.783056	0.999678
724.115259	0.998460
724.447412	0.999295
724.779518	1.000311
725.111574	0.998166
725.443582	0.999854
725.775542	0.999501
726.107453	0.999598
726.439315	1.000159
726.771129	0.999764
727.102895	0.999270
727.434612	0.999210
727.766281	0.999507
728.097901	0.997755
728.429473	0.999544
728.760996	0.998923
729.092471	0.999151
729.423897	0.999786
729.755276	1.000050
730.086606	0.998172
730.417887	0.999739
730.749120	0.999059
731.080305	0.998321
731.411442	0.997562
731.742530	0.998159
732.073570	0.999248
732.404562	0.998774
732.735506	0.998977
733.066401	0.999197
733.397249	0.998994
733.728048	0.999003
734.058798	0.999061
734.389501	0.998868
734.720156	0.999932
735.050762	0.999169
735.381320	0.998250
735.711831	0.998482
736.042293	0.998393
736.372707	0.999188
736.703073	0.998911
737.033391	0.999427
737.363661	0.999277
737.693883	0.998198
738.024056	0.999048
738.354182	0.999460
738.684260	0.999410
739.014290	0.998723
739.344272	0.999653
739.674207	0.999260
740.004093	0.999934
740.333931	0.999131
740.663722	0.998667
740.993464	0.998885
741.323159	0.998540
741.652806	0.998861
741.982405	0.998991
742.311956	0.999401
742.641460	1.000137
742.970915	0.998842
743.300323	0.997371
743.629683	0.999306
743.958996	1.000441
744.288260	0.998259
744.617477	0.999029
744.946647	0.999286
745.275768	0.999873
745.604842	0.998816
745.933869	0.999321
746.262847	0.998736
746.591778	0.996935
746.920662	0.999756
747.249498	1.000023
747.578286	1.000238
747.907027	0.998484
748.235720	0.999343
748.564365	0.999296
748.892963	0.998446
749.221514	0.999851
749.550017	0.998382
749.878473	0.999467
750.206881	0.999581
750.535242	0.998699
750.863555	0.998918
751.191821	0.998985
751.520039	0.998777
751.848210	0.996809
752.176334	0.998736
752.504411	0.998249
752.832440	0.997977
753.160421	0.998622
753.488356	0.998970
753.816243	0.998550
754.144082	0.998596
754.471875	0.999010
754.799620	0.999930
755.127318	0.998806
755.454969	0.998249
755.782572	1.000496
756.110129	0.999493
756.437638	1.000999
756.765100	1.000055
757.092515	0.998350
757.419882	0.998640
757.747203	0.999265
758.074477	0.999451
758.401703	0.998955
758.728882	0.999155
759.056014	0.998928
759.383099	1.000482
759.710138	0.999046
760.037129	0.999075
760.364073	0.999878
760.690970	0.999650
761.017820	0.998425
761.344623	0.999429
761.671379	0.999570
761.998088	0.999945
762.324751	0.999280
762.651366	0.999104
762.977935	0.997824
763.304456	0.999084
763.630931	0.996949
763.957359	0.996896
764.283740	0.997886
764.610074	0.998609
764.936362	0.997566
765.262602	0.999432
765.588796	0.999824
765.914943	0.998633
766.241044	0.999788
766.567097	0.999664
766.893104	0.999466
767.219064	0.998647
767.544978	0.999522
767.870845	0.999917
768.196665	0.998932
768.522438	0.998822
768.848165	0.999152
769.173846	0.999593
769.499479	0.999825
769.825066	0.999801
770.150607	1.000667
770.476101	0.999767
770.801548	1.000447
771.126949	1.000867
771.452303	0.999970
771.777611	1.000032
772.102872	0.999155
772.428087	0.998745
772.753256	0.999639
773.078378	0.999765
773.403453	0.999601
773.728482	1.000795
774.053465	0.999559
774.378401	0.999515
774.703291	0.999881
775.028135	1.000723
775.352932	0.998850
775.677683	0.999877
776.002388	0.999247
776.327046	0.999438
776.651658	1.001126
776.976224	0.999378
777.300743	0.998206
777.625216	0.999281
777.949643	1.000229
778.274024	0.998671
778.598359	0.999648
778.922647	1.000060
779.246889	0.999501
779.571086	0.999851
779.895236	0.999450
780.219339	0.999757
780.543397	0.998986
780.867409	0.999907
781.191374	0.999767
781.515294	1.000562
781.839167	1.000142
782.162995	0.999342
782.486776	0.999071
782.810511	0.999760
783.134201	0.999578
783.457844	0.999510
783.781441	0.999248
784.104993	0.998932
784.428498	1.000065
784.751958	1.000305
785.075372	1.001276
785.398739	0.999344
785.722061	0.998989
786.045337	0.999114
786.368568	0.999456
786.691752	0.998761
787.014891	0.999763
787.337983	0.998240
787.661030	0.999132
787.984031	0.999786
788.306987	0.999768
788.629897	0.999074
788.952760	0.999315
789.275579	0.999979
789.598351	0.999842
789.921078	1.001351
790.243759	0.998930
790.566395	0.998732
790.888984	0.999700
791.211529	0.999880
791.534027	0.999006
791.856480	0.999150
792.178888	0.999240
792.501249	0.998438
792.823566	1.001287
793.145836	0.999233
793.468062	0.999369
793.790241	0.999460
794.112375	0.998870
794.434464	0.999633
794.756507	1.000453
795.078505	1.000251
795.400457	1.000284
795.722364	1.000073
796.044226	0.999244
796.366042	0.998736
796.687812	0.998417
797.009538	0.999583
797.331218	0.999942
797.652852	1.000474
797.974442	0.998187
798.295986	0.999300
798.617484	0.999240
798.938938	1.000311
799.260346	0.999538
799.581709	0.999632
799.903026	1.000520
800.224299	0.998168
800.545526	0.998830
800.866708	0.998706
801.187845	0.999046
801.508936	0.999151
801.829983	0.999529
802.150984	1.000473
802.471940	0.999776
802.792851	0.997652
803.113717	1.000167
803.434538	1.000158
803.755314	1.000009
804.076045	0.999496
804.396731	0.998993
804.717372	0.998383
805.037967	1.000306
805.358518	0.999899
805.679024	0.998922
805.999485	0.999524
806.319901	1.000533
806.640272	1.000512
806.960598	1.000027
807.280879	0.999152
807.601115	1.000791
807.921306	1.000436
808.241453	0.999492
808.561554	0.999648
808.881611	0.999828
809.201623	0.999817
809.521590	0.998898
809.841513	1.000484
810.161390	0.998836
810.481223	0.999060
810.801011	0.999953
811.120755	1.001364
811.440453	0.998896
811.760107	0.999573
812.079716	0.999653
812.399281	0.999286
812.718801	0.998621
813.038276	0.998578
813.357707	0.999202
813.677093	1.000720
813.996434	0.999424
814.315731	1.000273
814.634983	0.999562
814.954191	1.000742
815.273354	0.999387
815.592473	0.998854
815.911547	1.000673
816.230577	0.998465
816.549562	1.001344
816.868502	0.998069
817.187399	1.001212
817.506250	0.999603
817.825058	0.998733
818.143821	0.999697
818.462539	0.999992
818.781213	0.999241
819.099843	0.999679
819.418429	0.999228
819.736970	0.999996
820.055466	0.998290
820.373919	0.997553
820.692327	0.998138
821.010691	0.997806
821.329011	0.997083
821.647286	0.996499
821.965517	0.996516
822.283704	0.996042
822.601847	0.995340
822.919945	0.995224
823.237999	0.995645
823.556010	0.995871
823.873976	0.997145
824.191897	0.997562
824.509775	0.997429
824.827609	0.998382
825.145398	0.998258
825.463144	0.997136
825.780845	0.997297
826.098502	0.997844
826.416116	0.998086
826.733685	0.997515
827.051210	0.996981
827.368692	0.996879
827.686129	0.996650
828.003522	0.998438
828.320872	0.997334
828.638177	0.999123
828.955439	0.998709
829.272656	0.999014
829.589830	0.998896
829.906960	0.999353
830.224046	0.998031
830.541088	0.998605
830.858086	0.998694
831.175041	1.000480
831.491952	0.999014
831.808819	0.999282
832.125642	0.999037
832.442421	1.000007
832.759157	1.000452
833.075849	0.999045
833.392497	0.998069
833.709101	0.997641
834.025662	0.998448
834.342179	0.999138
834.658653	0.998677
834.975083	0.999098
835.291469	0.999860
835.607811	0.998574
835.924110	0.999212
836.240366	1.000588
836.556578	0.999193
836.872746	0.999695
837.188871	0.999748
837.504952	0.998898
837.820990	0.999540
838.136984	0.998934
838.452935	0.999241
838.768842	1.000295
839.084706	0.999053
839.400526	0.999354
839.716303	0.997728
840.032037	1.000089
840.347727	0.998776
840.663373	0.998338
840.978977	0.999251
841.294537	0.999949
841.610054	0.999615
841.925527	0.999704
842.240957	0.999489
842.556344	0.999796
842.871687	0.999281
843.186987	1.000438
843.502244	0.999822
843.817458	0.998810
844.132629	0.999745
844.447756	1.000018
844.762840	0.999513
845.077881	1.001821
845.392879	0.999174
845.707833	0.999328
846.022745	0.999871
846.337613	0.998515
846.652438	0.999136
846.967221	1.000514
847.281960	0.999366
847.596656	1.000397
847.911309	1.000691
848.225919	0.999396
848.540485	1.000281
848.855009	1.001103
849.169490	1.000529
849.483928	0.999935
849.798323	0.999939
850.112675	1.000007
850.426984	1.000023
850.741251	0.999607
851.055474	1.000271
851.369654	0.999853
851.683792	0.999483
851.997887	0.999811
852.311938	1.000158
852.625947	0.999315
852.939914	0.999078
853.253837	1.001182
853.567718	1.001150
853.881555	1.000120
854.195350	1.000210
854.509103	0.999991
854.822812	1.001399
855.136479	1.001210
855.450103	0.999987
855.763685	1.000304
856.077224	1.000377
856.390720	1.000083
856.704173	1.001360
857.017584	1.000717
857.330953	0.999521
857.644278	1.000412
857.957561	0.999623
858.270802	1.000007
858.584000	0.999917
858.897155	0.999628
859.210268	1.000338
859.523339	1.000935
859.836367	1.000303
860.149352	1.000257
860.462295	0.999889
860.775195	0.999913
861.088054	0.998974
861.400869	0.999543
861.713642	0.999400
862.026373	1.001317
862.339062	1.000721
862.651708	1.000231
862.964312	1.001340
863.276873	1.000872
863.589392	1.000023
863.901869	0.999607
864.214303	1.001276
864.526696	1.000244
864.839045	1.000312
865.151353	0.999635
865.463619	1.000101
865.775842	1.000931
866.088023	1.000033
866.400162	1.000048
866.712258	1.000957
867.024313	1.000684
867.336325	1.001701
867.648296	1.000209
867.960224	1.000394
868.272110	1.000892
868.583954	1.000720
868.895755	1.000561
869.207515	1.000554
869.519233	1.001147
869.830909	0.999279
870.142542	0.999282
870.454134	0.999543
870.765684	1.000609
871.077191	1.000711
871.388657	1.000401
871.700081	1.000657
872.011463	1.000611
872.322803	1.001121
872.634101	0.998892
872.945357	1.000432
873.256571	0.999162
873.567744	0.999492
873.878874	0.999998
874.189963	0.999726
874.501010	1.001259
874.812015	1.000657
875.122979	1.000175
875.433900	0.999211
875.744780	1.000570
876.055618	0.999268
876.366415	0.999202
876.677169	0.999724
876.987882	1.000344
877.298554	1.000768
877.609183	0.999811
877.919771	1.000209
878.230317	0.999500
878.540822	0.999583
878.851285	0.999190
879.161707	0.999335
879.472087	1.001543
879.782425	0.999791
880.092722	0.999754
880.402977	0.998917
880.713191	0.996949
881.023363	0.997102
881.333494	0.996472
881.643583	0.998209
881.953631	0.997225
882.263637	0.997370
882.573602	0.997825
882.883526	0.996899
883.193408	0.998514
883.503248	0.998303
883.813048	0.998195
884.122806	0.998732
884.432522	0.998366
884.742197	0.999189
885.051831	0.998615
885.361424	0.998718
885.670975	1.000522
885.980485	0.999013
886.289954	0.999977
886.599382	0.998902
886.908768	0.999228
887.218113	0.999444
887.527417	1.000031
887.836680	1.001333
888.145901	1.000045
888.455082	1.001863
888.764221	1.001122
889.073319	0.999916
889.382376	1.000930
889.691392	0.999298
890.000366	1.001286
890.309300	0.999788
890.618193	0.999578
890.927044	1.000352
891.235855	1.000397
891.544625	0.999672
891.853353	0.999346
892.162041	1.000799
892.470687	1.000470
892.779293	0.999341
893.087858	0.998689
893.396381	1.000506
893.704864	0.999199
894.013306	0.999394
894.321707	0.999903
894.630068	0.998859
894.938387	0.999183
895.246665	0.999240
895.554903	0.999440
895.863100	0.998682
896.171256	0.998759
896.479371	0.999023
896.787446	0.999415
897.095480	0.999194
897.403473	1.000465
897.711425	1.000171
898.019336	1.000301
898.327207	0.999807
898.635038	0.998313
898.942827	1.000822
899.250576	1.000308
899.558284	0.999771
899.865952	0.998910
900.173579	0.999867
900.481165	1.000909
900.788711	0.999315
901.096216	1.000081
901.403681	0.999748
901.711105	1.000045
902.018489	1.000763
902.325832	0.999585
902.633135	0.999184
902.940397	1.000238
903.247619	0.999865
903.554800	0.999306
903.861941	1.000882
904.169041	0.998764
904.476101	0.999642
904.783121	0.998486
905.090100	0.999809
905.397039	0.999774
905.703938	0.998913
906.010796	0.998692
906.317614	0.998846
906.624391	0.999462
906.931129	0.999564
907.237826	1.000637
907.544483	1.000384
907.851099	1.000118
908.157675	0.999239
908.464211	1.000152
908.770707	0.999516
909.077163	1.000288
909.383578	0.999785
909.689954	0.999583
909.996289	0.999907
910.302584	1.000163
910.608839	1.001208
910.915054	1.000574
911.221229	1.001730
911.527363	0.999225
911.833458	0.999730
912.139513	1.000162
912.445527	1.000677
912.751502	0.999573
913.057436	1.000144
913.363331	1.000606
913.669186	1.000394
913.975000	1.000916
914.280775	0.999535
914.586510	0.998981
914.892205	0.999004
915.197859	0.999101
915.503475	0.999066
915.809050	0.998895
916.114585	0.997960
916.420081	0.999006
916.725536	1.000243
917.030952	0.998461
917.336328	0.998749
917.641665	0.998872
917.946961	0.999037
918.252218	0.999631
918.557435	0.999462
918.862612	1.000257
919.167750	1.000643
919.472848	0.999894
919.777906	1.000995
920.082925	1.001330
920.387904	0.999782
920.692843	0.999540
920.997743	0.999155
921.302603	1.000762
921.607423	0.999534
921.912204	0.999659
922.216946	1.001729
922.521647	0.998633
922.826310	1.000380
923.130932	1.001353
923.435516	1.001331
923.740059	0.999676
924.044564	0.999810
924.349028	0.999254
924.653454	1.000340
924.957840	0.999881
925.262186	1.000258
925.566493	1.000165
925.870761	0.999820
926.174989	0.999751
926.479178	1.000764
926.783328	0.999998
927.087438	0.999139
927.391509	1.001116
927.695541	0.999718
927.999533	1.000688
928.303486	1.000376
928.607400	1.000559
928.911275	0.999770
929.215110	1.000451
929.518906	1.001546
929.822663	1.001043
930.126381	1.001526
930.430060	0.999670
930.733699	1.000279
931.037299	1.000514
931.340861	0.999582
931.644383	1.000268
931.947866	0.999783
932.251309	1.001526
932.554714	1.000386
932.858080	0.999810
933.161407	0.999234
933.464694	0.998983
933.767943	1.000398
934.071153	1.000545
934.374323	1.000602
934.677455	1.000313
934.980548	0.999642
935.283602	1.000594
935.586617	0.999790
935.889593	1.001410
936.192530	1.000180
936.495428	1.001167
936.798287	1.000392
937.101108	1.001594
937.403890	1.000006
937.706632	1.001169
938.009336	1.000685
938.312002	0.999675
938.614628	1.000965
938.917216	1.000347
939.219765	0.999977
939.522275	1.000330
939.824747	0.999368
940.127179	1.001012
940.429573	1.001638
940.731929	0.999779
941.034246	0.999893
941.336524	1.000408
941.638763	1.000629
941.940964	0.999901
942.243126	1.000360
942.545250	1.000330
942.847335	0.999535
943.149381	1.000580
943.451389	0.999689
943.753359	1.000276
944.055290	1.001213
944.357182	1.000558
944.659036	1.001011
944.960851	1.000094
945.262628	1.000921
945.564367	1.000787
945.866067	1.001505
946.167729	1.001303
946.469352	1.001176
946.770937	0.998940
947.072484	1.000780
947.373992	1.000204
947.675462	0.999742
947.976893	1.000221
948.278286	1.001996
948.579641	1.001296
948.880958	1.000825
949.182236	0.999727
949.483476	1.000980
949.784678	0.999539
950.085841	0.999483
950.386967	0.999528
950.688054	1.001127
950.989103	0.999624
951.290114	0.999735
951.591087	1.000285
951.892021	0.999257
952.192917	1.000964
952.493776	1.000687
952.794596	0.999780
953.095378	1.000924
953.396122	0.999573
953.696828	1.001811
953.997496	0.999679
954.298126	1.001566
954.598718	0.999246
954.899272	1.001546
955.199788	0.999680
955.500266	1.001206
955.800706	0.999740
956.101108	0.999596
956.401472	1.002246
956.701798	0.999702
957.002087	1.000383
957.302337	0.999824
957.602550	0.999923
957.902724	1.000050
958.202861	0.999730
958.502960	0.998831
958.803022	1.001482
959.103045	1.001166
959.403031	1.000965
959.702979	1.000776
960.002889	0.999518
960.302762	0.999741
960.602596	1.001363
960.902393	1.001039
961.202153	1.000576
961.501875	1.000607
961.801559	1.000990
962.101205	0.999243
962.400814	1.001272
962.700385	1.000376
962.999918	0.999735
963.299414	0.999879
963.598873	0.999759
963.898293	0.999514
964.197677	0.999338
964.497022	1.000684
964.796331	0.999581
965.095601	1.001181
965.394835	0.998739
965.694030	1.000938
965.993189	0.999688
966.292309	1.000769
966.591393	0.999660
966.890439	1.000472
967.189447	1.000430
967.488419	0.999460
967.787353	1.000327
968.086249	1.000539
968.385108	0.998886
968.683930	1.001576
968.982714	1.000377
969.281462	1.000653
969.580172	1.000465
969.878844	1.000424
970.177480	0.999633
970.476078	1.001386
970.774639	1.001080
971.073162	1.000213
971.371649	1.000222
971.670098	1.000369
971.968510	1.001445
972.266885	1.000053
972.565223	1.000580
972.863524	0.999172
973.161788	1.000641
973.460014	1.001542
973.758204	0.999173
974.056356	1.000205
974.354471	0.999665
974.652550	1.001835
974.950591	0.998558
975.248595	0.999581
975.546563	1.001690
975.844493	1.001176
976.142386	1.000400
976.440243	1.000560
976.738062	1.000352
977.035845	0.999102
977.333590	1.000510
977.631299	0.999765
977.928971	1.000456
978.226606	0.999805
978.524204	0.999447
978.821765	1.001221
979.119290	1.001535
979.416777	1.001800
979.714228	1.000484
980.011642	1.000723
980.309020	0.999660
980.606360	1.000475
980.903664	1.000535
981.200931	0.999839
981.498162	0.999002
981.795356	1.000905
982.092513	1.000882
982.389633	1.002142
982.686717	0.999930
982.983764	1.000462
983.280775	1.000856
983.577749	1.001062
983.874686	0.999915
984.171587	0.999608
984.468451	1.001302
984.765279	1.000247
985.062070	1.000914
985.358824	0.999779
985.655543	1.000104
985.952224	1.000739
986.248869	1.000303
986.545478	1.002380
986.842050	0.999765
987.138586	0.998534
987.435086	1.000261
987.731549	1.002361
988.027975	1.000727
988.324366	1.001302
988.620719	1.001264
988.917037	1.000681
989.213318	1.000341
989.509563	1.000004
989.805772	1.001008
990.101944	1.000199
990.398080	1.000476
990.694180	1.000825
990.990244	0.999521
991.286271	1.000351
991.582262	1.001544
991.878217	1.000171
992.174136	1.001470
992.470019	0.999787
992.765865	1.001839
993.061676	1.000204
993.357450	1.000509
993.653188	1.001000
993.948890	1.001464
994.244556	0.998847
994.540186	1.000843
994.835780	1.000323
995.131337	1.000968
995.426859	1.000795
995.722345	1.000042
996.017795	1.000747
996.313208	0.999581
996.608586	1.001380
996.903928	0.999539
997.199234	0.999995
997.494504	1.001525
997.789738	1.000609
998.084936	1.000279
998.380099	0.999380
998.675225	1.001547
998.970316	1.000222
999.265371	1.000895
999.560390	1.001004
999.855373	0.999648
1000.150320	1.000308
1000.445232	1.000682
1000.740108	1.000087
1001.034948	0.999660
1001.329752	1.001651
1001.624521	1.000555
1001.919254	0.998682
1002.213951	1.001127
1002.508613	1.000477
1002.803239	1.000452
1003.097829	1.001041
1003.392384	1.000444
1003.686903	1.001316
1003.981386	0.999298
1004.275834	1.001576
1004.570246	0.998984
1004.864623	1.001413
1005.158964	1.000954
1005.453270	1.000008
1005.747540	1.000948
1006.041775	1.001217
1006.335974	0.999666
1006.630138	0.999827
1006.924266	0.999702
1007.218359	0.998269
1007.512416	1.001064
1007.806438	1.000263
1008.100425	1.001025
1008.394376	1.000971
1008.688292	1.000054
1008.982172	0.999583
1009.276017	1.001459
1009.569827	1.001713
1009.863602	0.999007
1010.157341	1.001785
1010.451045	1.000400
1010.744714	1.001960
1011.038347	1.001613
1011.331945	0.999511
1011.625508	0.999742
1011.919036	0.999902
1012.212528	1.001066
1012.505986	0.999438
1012.799408	1.000681
1013.092795	1.000588
1013.386147	1.000151
1013.679464	1.001176
1013.972745	0.999623
1014.265992	1.000367
1014.559204	1.001230
1014.852380	1.001415
1015.145521	1.000165
1015.438628	1.000231
1015.731699	0.999699
1016.024736	1.000385
1016.317737	1.000379
1016.610703	1.001033
1016.903635	0.999661
1017.196531	1.000217
1017.489393	0.999382
1017.782219	1.000374
1018.075011	1.000243
1018.367768	0.999334
1018.660490	0.999778
1018.953177	0.999778
1019.245829	0.999778
