Dividing Wavelength (nm)	Counts (n)	Blue Motor Position (mm): 47.800000	Red Motor Position (mm): 0.000000	
326.493990	0.999967
326.888308	0.999967
327.282561	0.999967
327.676750	1.001392
328.070874	1.000899
328.464933	1.001273
328.858929	1.000688
329.252859	1.000180
329.646726	0.999975
330.040528	1.000436
330.434265	1.000192
330.827938	0.999008
331.221547	1.001420
331.615091	1.000495
332.008571	1.002600
332.401986	0.999141
332.795338	0.999585
333.188625	1.000542
333.581847	0.999853
333.975006	1.000320
334.368100	1.000548
334.761129	1.000398
335.154095	1.001065
335.546996	1.000491
335.939833	0.999527
336.332606	1.000479
336.725315	0.999611
337.117960	1.000017
337.510540	0.999470
337.903056	1.000319
338.295508	1.001458
338.687896	1.001232
339.080220	1.000892
339.472480	1.001564
339.864676	1.002094
340.256807	0.999463
340.648875	1.000883
341.040879	1.001328
341.432818	1.001377
341.824694	1.000673
342.216506	1.001424
342.608253	1.000575
342.999937	1.000033
343.391557	1.000556
343.783113	1.002177
344.174605	1.000768
344.566033	0.999683
344.957397	1.000575
345.348697	1.000937
345.739934	1.000600
346.131106	1.000532
346.522215	0.998609
346.913260	1.000532
347.304241	0.999377
347.695159	1.001362
348.086012	1.000041
348.476802	1.001229
348.867528	1.000443
349.258191	1.000975
349.648789	1.000365
350.039324	1.001277
350.429796	0.999211
350.820203	1.000140
351.210548	1.000309
351.600828	1.000160
351.991045	0.999796
352.381198	1.000955
352.771288	1.000475
353.161314	1.001395
353.551276	1.000348
353.941175	0.998960
354.331010	1.000594
354.720782	0.999980
355.110490	1.000112
355.500135	1.000409
355.889717	0.999361
356.279235	0.999921
356.668689	1.000226
357.058080	1.000369
357.447408	0.998883
357.836672	1.000864
358.225873	1.000580
358.615010	1.000800
359.004084	0.999345
359.393095	1.000089
359.782043	1.000073
360.170927	1.000041
360.559748	1.000760
360.948505	0.999830
361.337199	1.000064
361.725830	1.001046
362.114398	1.000588
362.502903	1.000168
362.891344	1.000241
363.279722	1.000668
363.668037	1.001096
364.056289	0.999607
364.444478	1.002192
364.832603	1.000559
365.220665	1.000605
365.608665	1.000467
365.996601	1.000180
366.384474	0.998706
366.772284	0.999634
367.160031	0.998692
367.547715	0.999609
367.935336	0.999221
368.322893	0.997709
368.710388	0.997725
369.097820	0.994788
369.485189	0.993753
369.872495	0.992002
370.259738	0.991004
370.646918	0.988249
371.034035	0.987586
371.421090	0.986492
371.808081	0.983514
372.195010	0.983483
372.581875	0.979960
372.968678	0.978383
373.355418	0.978127
373.742096	0.973308
374.128710	0.973738
374.515262	0.973720
374.901751	0.972172
375.288177	0.970126
375.674540	0.970412
376.060841	0.969715
376.447079	0.967904
376.833254	0.968079
377.219367	0.967668
377.605417	0.966073
377.991404	0.967009
378.377329	0.967400
378.763191	0.966241
379.148991	0.966941
379.534727	0.967262
379.920402	0.966760
380.306013	0.967917
380.691563	0.969348
381.077049	0.969977
381.462474	0.970281
381.847835	0.970915
382.233134	0.973364
382.618371	0.975650
383.003545	0.975388
383.388657	0.976904
383.773706	0.978044
384.158693	0.979805
384.543618	0.982726
384.928480	0.982894
385.313280	0.984726
385.698017	0.984668
386.082692	0.986925
386.467305	0.988269
386.851856	0.990620
387.236344	0.991014
387.620770	0.992844
388.005133	0.993344
388.389435	0.994069
388.773674	0.995161
389.157851	0.995691
389.541965	0.997450
389.926018	0.996966
390.310008	0.996587
390.693936	0.998465
391.077802	0.999661
391.461606	0.998075
391.845348	0.999425
392.229027	0.999172
392.612645	1.000124
392.996200	1.000291
393.379694	0.999615
393.763125	1.000544
394.146494	0.999930
394.529801	1.000421
394.913047	1.000136
395.296230	1.000626
395.679351	1.000467
396.062410	1.000719
396.445408	1.000319
396.828343	1.000818
397.211217	1.000750
397.594028	0.999541
397.976778	1.001611
398.359466	1.000613
398.742092	1.001777
399.124656	1.000456
399.507158	0.999909
399.889598	1.002151
400.271977	1.000888
400.654294	1.000320
401.036549	1.000361
401.418742	1.001125
401.800874	1.000778
402.182944	1.000592
402.564952	0.999853
402.946898	1.001294
403.328783	1.001288
403.710606	1.000713
404.092367	1.001010
404.474067	1.001646
404.855705	1.001554
405.237282	1.000223
405.618797	1.001277
406.000250	1.001125
406.381642	1.000507
406.762972	1.001771
407.144240	1.001302
407.525447	0.999743
407.906593	1.000495
408.287677	1.000456
408.668700	1.001070
409.049661	1.000968
409.430560	1.000924
409.811399	1.000278
410.192176	1.000704
410.572891	1.001695
410.953545	1.000893
411.334138	1.001228
411.714669	1.000851
412.095139	1.000922
412.475547	1.001308
412.855894	1.001103
413.236180	1.001495
413.616405	1.000576
413.996568	1.001313
414.376670	1.000801
414.756711	1.000751
415.136691	1.000964
415.516609	1.000260
415.896466	1.000730
416.276262	1.000311
416.655997	1.001652
417.035670	1.001379
417.415283	1.001329
417.794834	1.000887
418.174324	1.001742
418.553753	1.000644
418.933121	1.000889
419.312428	1.001634
419.691674	1.001115
420.070859	1.001323
420.449983	1.001424
420.829045	1.000139
421.208047	1.001192
421.586988	1.000284
421.965867	1.000105
422.344686	1.001541
422.723444	1.000469
423.102141	1.000904
423.480777	0.999644
423.859352	1.001171
424.237866	1.000653
424.616319	1.001832
424.994712	1.001924
425.373044	1.000845
425.751314	1.001235
426.129524	1.001557
426.507673	1.000307
426.885762	1.001178
427.263789	1.001176
427.641756	1.000593
428.019662	1.001146
428.397508	1.001315
428.775292	1.000882
429.153016	1.000942
429.530679	1.001411
429.908282	1.001860
430.285824	1.000788
430.663305	1.001605
431.040726	1.002079
431.418086	1.001171
431.795385	1.001071
432.172624	1.001970
432.549802	1.001267
432.926920	1.001442
433.303977	1.001128
433.680974	1.002155
434.057910	1.001731
434.434786	1.000425
434.811601	1.001527
435.188355	1.001584
435.565050	1.001893
435.941683	1.000947
436.318257	1.000520
436.694770	1.001314
437.071222	1.002014
437.447614	1.001427
437.823946	1.001110
438.200218	1.001696
438.576429	1.000962
438.952580	1.001224
439.328670	1.001222
439.704700	1.000853
440.080670	1.000858
440.456580	1.001392
440.832429	1.001180
441.208218	1.000996
441.583947	1.000642
441.959616	1.000308
442.335224	1.002042
442.710773	1.001612
443.086261	1.002323
443.461689	1.000870
443.837057	1.000305
444.212365	1.001231
444.587612	1.002173
444.962800	1.001156
445.337927	1.001750
445.712995	1.001683
446.088002	1.001177
446.462949	1.001130
446.837837	1.002060
447.212664	1.001341
447.587431	1.001569
447.962139	1.000987
448.336786	1.000796
448.711374	1.001306
449.085901	1.001414
449.460369	1.001972
449.834776	1.000612
450.209124	1.001860
450.583412	1.001328
450.957640	1.000534
451.331808	1.002540
451.705917	1.000854
452.079965	1.001246
452.453954	1.002168
452.827883	1.002016
453.201752	1.001568
453.575562	1.001253
453.949311	1.001648
454.323001	1.001193
454.696632	1.001008
455.070202	1.001126
455.443713	1.001036
455.817164	1.001165
456.190556	1.001707
456.563888	1.002055
456.937160	1.001738
457.310373	1.001417
457.683526	1.001070
458.056619	1.001963
458.429653	1.001074
458.802628	1.000706
459.175542	1.001756
459.548398	1.001635
459.921194	1.001649
460.293930	1.001965
460.666607	1.001888
461.039224	1.000803
461.411782	1.001059
461.784280	1.000900
462.156719	1.001840
462.529099	1.001768
462.901419	1.001287
463.273680	1.000435
463.645882	1.001580
464.018024	1.002638
464.390106	1.001067
464.762130	1.001711
465.134094	1.001765
465.505999	1.001489
465.877845	1.001748
466.249631	1.000879
466.621358	1.000371
466.993026	1.001576
467.364634	1.001861
467.736184	1.001837
468.107674	1.001385
468.479105	1.001436
468.850477	1.001582
469.221790	1.001783
469.593043	1.001503
469.964238	1.001283
470.335373	1.001172
470.706449	1.001867
471.077467	1.000824
471.448425	1.001984
471.819324	1.001527
472.190164	1.001603
472.560945	1.001490
472.931667	1.001353
473.302330	1.000954
473.672934	1.002478
474.043479	1.001565
474.413965	1.002341
474.784393	1.001740
475.154761	1.001322
475.525070	1.001588
475.895321	1.002054
476.265513	1.002046
476.635645	1.002204
477.005719	1.001578
477.375734	1.001379
477.745691	1.001251
478.115588	1.001158
478.485427	1.001770
478.855207	1.002248
479.224928	1.001686
479.594591	1.001966
479.964194	1.001369
480.333739	1.001197
480.703226	1.001788
481.072653	1.000904
481.442022	1.001690
481.811333	1.001540
482.180584	1.001629
482.549777	1.001867
482.918912	1.001481
483.287988	1.001932
483.657005	1.001360
484.025964	1.001846
484.394864	1.000973
484.763706	1.001609
485.132489	1.001904
485.501213	1.001859
485.869879	1.001216
486.238487	1.000559
486.607036	1.001766
486.975527	1.002037
487.343959	1.001169
487.712333	1.001328
488.080648	1.000643
488.448905	1.001865
488.817104	1.001263
489.185244	1.001403
489.553326	1.000986
489.921350	1.001873
490.289315	1.001344
490.657222	1.000993
491.025070	1.002029
491.392861	1.001584
491.760593	1.001253
492.128267	1.001236
492.495883	1.000845
492.863440	1.002010
493.230939	1.001849
493.598380	1.002406
493.965763	1.001306
494.333088	1.000793
494.700354	1.000790
495.067563	1.001322
495.434713	1.001039
495.801805	1.001495
496.168839	1.001103
496.535815	1.001642
496.902733	1.001287
497.269593	1.001397
497.636395	1.000580
498.003139	1.001138
498.369825	1.001910
498.736453	1.001785
499.103023	1.001999
499.469535	1.001490
499.835989	1.001293
500.202385	1.001470
500.568723	1.001285
500.935003	1.001434
501.301226	1.001313
501.667390	1.001535
502.033497	1.001636
502.399546	1.001323
502.765537	1.001360
503.131470	1.001296
503.497345	1.001430
503.863163	1.001499
504.228923	1.001270
504.594625	1.001541
504.960269	1.001476
505.325856	1.002223
505.691385	1.001847
506.056856	1.001475
506.422270	1.001563
506.787625	1.001032
507.152924	1.001585
507.518164	1.001898
507.883347	1.000840
508.248472	1.001100
508.613540	1.000958
508.978550	1.001951
509.343503	1.001567
509.708398	1.002251
510.073236	1.001252
510.438016	1.000429
510.802738	1.001223
511.167403	1.001277
511.532010	1.001604
511.896561	1.002058
512.261053	1.001337
512.625488	1.001404
512.989866	1.001588
513.354186	1.000866
513.718449	1.002034
514.082655	1.001695
514.446803	1.001160
514.810894	1.002279
515.174927	1.001577
515.538904	1.001344
515.902822	1.001293
516.266684	1.001217
516.630488	1.001356
516.994235	1.001664
517.357925	1.001453
517.721558	1.001462
518.085133	1.000979
518.448651	1.001277
518.812112	1.001948
519.175516	1.001313
519.538863	1.000604
519.902152	1.001086
520.265385	1.001264
520.628560	1.001716
520.991678	1.001249
521.354739	1.002634
521.717743	1.001618
522.080690	1.000975
522.443580	1.002076
522.806413	1.000634
523.169189	1.002079
523.531908	1.000699
523.894569	1.001697
524.257174	1.001650
524.619722	1.001164
524.982213	1.001573
525.344647	1.001291
525.707025	1.001197
526.069345	1.000780
526.431608	1.001654
526.793815	1.001430
527.155964	1.002183
527.518057	1.001890
527.880093	1.001755
528.242072	1.001525
528.603995	1.001999
528.965860	1.001456
529.327669	1.001674
529.689421	1.000442
530.051117	1.001742
530.412755	1.001887
530.774337	1.001110
531.135862	1.001714
531.497331	1.001188
531.858743	1.001831
532.220098	1.001206
532.581396	1.001957
532.942638	1.001456
533.303824	1.001292
533.664953	1.001066
534.026025	1.001989
534.387040	1.001765
534.747999	1.001184
535.108902	1.001387
535.469748	1.002350
535.830537	1.002401
536.191270	1.001761
536.551947	1.001668
536.912567	1.001334
537.273131	1.002388
537.633638	1.001142
537.994089	1.001450
538.354483	1.001417
538.714821	1.001376
539.075103	1.001031
539.435328	1.001734
539.795497	1.002396
540.155609	1.001130
540.515665	1.002019
540.875665	1.001792
541.235609	1.002063
541.595496	1.000845
541.955328	1.001827
542.315102	1.002017
542.674821	1.001923
543.034483	1.002536
543.394090	1.000946
543.753640	1.001104
544.113134	1.001127
544.472571	1.001674
544.831953	1.001192
545.191278	1.001706
545.550548	1.000693
545.909761	1.001639
546.268918	1.002293
546.628019	1.001673
546.987064	1.002108
547.346053	1.001005
547.704986	1.001545
548.063863	1.001259
548.422684	1.001880
548.781449	1.001731
549.140158	1.001647
549.498811	1.000878
549.857408	1.000760
550.215949	1.001051
550.574434	1.001057
550.932864	1.001857
551.291237	1.001127
551.649555	1.001872
552.007817	1.001999
552.366022	1.002282
552.724173	1.001628
553.082267	1.001701
553.440305	1.001515
553.798288	1.001136
554.156215	1.001225
554.514086	1.001528
554.871902	1.001238
555.229661	1.001350
555.587365	1.001851
555.945014	1.001592
556.302606	1.001534
556.660143	1.001613
557.017625	1.001831
557.375050	1.001302
557.732421	1.001648
558.089735	1.001770
558.446994	1.001402
558.804197	1.002112
559.161345	1.000565
559.518437	1.001361
559.875474	1.001025
560.232455	1.001862
560.589381	1.001623
560.946251	1.000877
561.303065	1.001956
561.659825	1.000798
562.016528	1.001576
562.373177	1.001875
562.729770	1.000977
563.086307	1.000534
563.442789	1.001527
563.799216	1.000852
564.155587	1.002150
564.511904	1.002040
564.868164	1.000652
565.224370	1.001436
565.580520	1.001773
565.936615	1.001866
566.292654	1.001532
566.648638	1.002137
567.004567	1.001045
567.360441	1.001890
567.716260	1.000987
568.072023	1.001514
568.427732	1.001768
568.783385	1.001323
569.138982	1.001571
569.494525	1.001536
569.850013	1.001897
570.205445	1.001893
570.560823	1.001068
570.916145	1.000834
571.271412	1.001782
571.626625	1.000952
571.981782	1.001488
572.336884	1.001508
572.691931	1.001493
573.046923	1.002622
573.401860	1.001154
573.756743	1.001788
574.111570	1.001533
574.466342	1.002020
574.821059	1.000967
575.175722	1.002234
575.530330	1.000992
575.884882	1.001231
576.239380	1.001182
576.593823	1.001722
576.948211	1.002242
577.302544	1.001443
577.656823	1.001271
578.011047	1.001033
578.365216	1.002752
578.719330	1.001749
579.073389	1.000341
579.427394	1.000784
579.781344	1.001636
580.135239	1.000520
580.489080	1.001522
580.842866	1.001803
581.196597	1.001088
581.550273	1.001302
581.903895	1.001706
582.257463	1.001386
582.610975	1.001551
582.964434	1.001852
583.317837	1.002176
583.671186	1.002154
584.024481	1.001422
584.377721	1.000914
584.730906	1.001379
585.084037	1.001809
585.437113	1.002269
585.790135	1.001691
586.143103	1.001797
586.496016	1.001590
586.848874	1.002264
587.201679	1.001406
587.554428	1.000754
587.907124	1.001960
588.259765	1.001329
588.612352	1.001660
588.964884	1.001378
589.317362	1.001179
589.669786	1.001934
590.022155	1.001572
590.374470	1.001906
590.726731	1.001088
591.078937	1.001517
591.431090	1.001640
591.783188	1.001351
592.135232	1.001973
592.487222	1.001742
592.839157	1.001122
593.191038	1.001693
593.542866	1.001513
593.894639	1.000722
594.246358	1.002078
594.598022	1.001433
594.949633	1.002307
595.301190	1.001207
595.652692	1.000889
596.004141	1.001529
596.355535	1.001522
596.706876	1.001720
597.058162	1.002031
597.409395	1.001277
597.760573	1.001108
598.111698	1.001806
598.462768	1.000643
598.813785	1.000700
599.164748	1.001103
599.515657	1.001531
599.866511	1.002348
600.217312	1.001813
600.568060	1.001063
600.918753	1.001648
601.269392	1.001661
601.619978	1.001318
601.970510	1.001212
602.320988	1.000904
602.671412	1.001105
603.021783	1.001511
603.372100	1.002162
603.722363	1.002146
604.072572	1.001263
604.422728	1.000789
604.772830	1.000800
605.122878	1.001743
605.472872	1.001743
605.822813	1.000847
606.172701	1.001286
606.522534	1.001583
606.872314	1.002145
607.222041	1.001046
607.571714	1.001715
607.921333	1.000712
608.270899	1.000591
608.620411	1.001230
608.969870	1.002603
609.319276	1.001391
609.668627	1.001910
610.017926	1.001073
610.367171	1.001086
610.716362	1.001841
611.065500	1.001151
611.414585	1.001722
611.763616	1.001885
612.112594	1.001548
612.461518	1.000538
612.810389	1.001257
613.159207	1.000906
613.507971	1.000774
613.856682	1.002210
614.205340	1.000396
614.553945	1.001411
614.902496	1.000912
615.250994	1.001178
615.599439	1.001923
615.947830	1.000505
616.296169	1.001800
616.644454	1.001230
616.992686	1.001424
617.340864	1.000960
617.688990	1.000475
618.037063	1.001878
618.385082	1.000595
618.733048	1.000771
619.080961	1.001431
619.428821	1.002344
619.776628	1.000993
620.124382	1.001621
620.472083	1.001145
620.819731	1.002257
621.167326	1.001614
621.514868	1.001715
621.862357	1.001290
622.209793	1.001472
622.557176	1.000716
622.904506	1.001801
623.251783	1.001485
623.599007	1.001578
623.946179	1.000729
624.293297	1.001970
624.640363	1.002151
624.987376	1.001182
625.334336	1.001201
625.681243	1.001209
626.028097	1.001849
626.374899	1.001012
626.721647	1.002059
627.068343	1.001990
627.414987	1.001025
627.761577	0.999742
628.108115	1.001011
628.454600	1.001311
628.801032	1.001096
629.147412	1.000923
629.493739	1.002321
629.840014	1.001094
630.186236	1.001382
630.532405	1.000990
630.878521	1.000421
631.224585	1.001052
631.570597	1.000701
631.916556	1.001547
632.262462	1.000376
632.608316	1.001750
632.954117	1.000616
633.299866	1.001244
633.645562	1.000590
633.991206	1.001535
634.336797	1.001072
634.682336	1.002000
635.027823	1.001161
635.373257	1.001577
635.718639	1.001496
636.063968	1.000195
636.409245	1.001139
636.754470	1.001269
637.099642	1.001611
637.444762	1.001298
637.789829	1.000621
638.134845	1.000931
638.479808	1.001725
638.824719	1.000994
639.169577	1.000839
639.514383	1.001645
639.859137	1.000644
640.203839	1.001042
640.548489	1.001347
640.893086	1.000979
641.237632	1.000926
641.582125	1.001503
641.926566	1.001827
642.270955	1.001553
642.615292	1.000441
642.959576	1.000458
643.303809	1.001523
643.647990	1.000967
643.992118	1.001386
644.336195	1.001151
644.680219	1.001022
645.024192	1.001480
645.368112	0.999892
645.711981	1.000712
646.055797	1.001400
646.399562	1.000300
646.743274	1.001083
647.086935	1.000958
647.430544	1.000707
647.774101	1.000458
648.117606	1.001370
648.461059	1.000740
648.804460	1.000587
649.147810	1.000694
649.491108	1.000802
649.834354	1.001264
650.177548	1.001261
650.520690	1.000709
650.863781	1.000590
651.206820	1.001628
651.549807	1.000581
651.892742	1.001516
652.235626	1.001049
652.578458	1.001139
652.921238	1.000963
653.263967	1.001746
653.606644	1.001446
653.949269	1.001760
654.291843	1.000794
654.634365	1.001098
654.976836	1.000449
655.319255	1.001542
655.661622	1.001189
656.003938	1.001328
656.346203	1.000787
656.688416	1.001782
657.030577	1.001042
657.372687	1.001348
657.714746	0.999889
658.056753	1.001177
658.398708	1.000548
658.740612	1.002155
659.082465	1.000911
659.424266	1.001923
659.766016	1.000252
660.107715	1.001594
660.449362	1.000177
660.790958	1.000203
661.132503	1.001171
661.473996	1.000237
661.815438	1.001516
662.156829	1.001161
662.498168	1.001188
662.839456	1.000294
663.180693	1.001082
663.521879	1.000714
663.863013	1.001692
664.204097	1.000522
664.545129	1.000817
664.886110	1.000015
665.227040	1.000442
665.567918	1.000893
665.908746	1.000403
666.249522	0.999911
666.590248	1.000627
666.930922	1.000914
667.271545	1.001176
667.612118	1.000507
667.952639	1.001393
668.293109	1.001922
668.633528	1.000850
668.973896	1.000473
669.314213	1.000637
669.654480	1.001118
669.994695	1.000545
670.334859	1.001284
670.674973	1.000614
671.015035	1.001250
671.355047	1.001248
671.695008	1.000623
672.034918	1.001084
672.374777	1.001127
672.714585	1.000678
673.054342	1.001188
673.394049	1.000721
673.733705	1.000723
674.073310	0.999994
674.412864	1.000476
674.752368	1.000177
675.091820	1.001398
675.431223	1.001034
675.770574	1.000925
676.109875	1.001239
676.449125	1.000665
676.788324	1.001072
677.127473	1.001916
677.466571	1.001266
677.805619	1.000819
678.144616	1.001769
678.483562	1.001124
678.822458	1.001090
679.161303	1.000320
679.500098	1.000887
679.838842	1.001525
680.177535	1.000980
680.516179	1.000169
680.854771	0.999930
681.193314	1.000861
681.531805	1.001199
681.870247	1.000173
682.208638	1.001015
682.546978	1.000583
682.885268	1.000477
683.223508	1.000831
683.561697	1.000333
683.899836	1.000532
684.237925	0.998758
684.575963	1.000557
684.913951	1.001238
685.251889	0.999955
685.589776	1.001145
685.927614	1.000901
686.265401	1.000750
686.603137	1.000575
686.940824	1.000504
687.278460	1.000761
687.616046	0.999997
687.953582	1.000377
688.291068	1.000281
688.628504	1.000598
688.965889	1.000106
689.303224	0.999466
689.640510	1.000166
689.977745	0.999813
690.314930	1.000830
690.652065	1.000681
690.989150	0.999547
691.326185	1.000313
691.663170	1.000225
692.000105	1.001306
692.336990	1.000773
692.673825	0.999755
693.010610	0.999869
693.347345	1.000955
693.684030	1.000185
694.020665	0.999625
694.357251	1.000426
694.693786	1.000578
695.030272	0.999246
695.366707	0.999828
695.703093	1.000265
696.039429	0.999703
696.375716	1.000661
696.711952	0.999751
697.048139	1.000243
697.384276	1.000880
697.720363	0.999602
698.056400	0.999616
698.392388	0.999681
698.728326	1.000024
699.064214	1.000525
699.400053	1.000319
699.735842	1.000915
700.071581	0.999944
700.407270	0.999822
700.742910	1.001031
701.078501	0.999937
701.414042	1.001229
701.749533	1.000235
702.084974	1.000586
702.420366	1.000256
702.755709	0.999595
703.091002	1.000592
703.426246	1.000049
703.761440	1.000658
704.096584	0.999257
704.431679	0.998446
704.766725	0.999561
705.101721	1.000806
705.436668	1.000650
705.771565	0.999740
706.106413	0.999087
706.441212	1.000369
706.775961	1.000039
707.110661	0.999695
707.445311	1.000309
707.779913	1.000203
708.114465	1.001338
708.448967	1.000550
708.783421	1.000137
709.117825	1.000917
709.452180	1.000640
709.786485	0.999737
710.120742	0.999717
710.454949	0.999860
710.789107	1.000367
711.123216	0.998140
711.457275	0.999337
711.791286	0.999937
712.125247	1.001441
712.459159	1.000326
712.793023	1.000173
713.126837	1.000291
713.460602	0.999642
713.794318	0.998772
714.127985	0.998842
714.461602	0.999702
714.795171	0.999416
715.128691	0.999517
715.462162	1.000519
715.795584	1.000196
716.128957	1.000972
716.462281	1.000706
716.795556	0.999543
717.128782	1.000808
717.461960	1.000320
717.795088	1.000464
718.128167	1.001625
718.461198	1.000455
718.794180	1.000466
719.127113	1.000634
719.459997	0.999348
719.792833	1.000571
720.125619	1.000323
720.458357	0.999318
720.791046	1.001007
721.123686	1.000201
721.456278	1.000140
721.788821	0.999685
722.121315	1.001025
722.453761	1.000044
722.786158	0.998907
723.118506	1.000114
723.450805	1.000150
723.783056	1.001047
724.115259	0.998947
724.447412	1.000899
724.779518	1.000634
725.111574	0.999950
725.443582	1.000239
725.775542	1.000685
726.107453	1.000273
726.439315	1.000773
726.771129	1.000167
727.102895	1.000342
727.434612	0.999928
727.766281	1.000109
728.097901	0.999777
728.429473	1.000224
728.760996	0.999186
729.092471	1.000602
729.423897	1.000660
729.755276	0.999914
730.086606	0.999839
730.417887	1.000758
730.749120	1.000528
731.080305	0.999862
731.411442	0.999873
731.742530	0.999748
732.073570	0.999337
732.404562	1.000738
732.735506	0.999878
733.066401	1.000251
733.397249	0.999773
733.728048	0.999860
734.058798	0.999475
734.389501	1.001121
734.720156	1.000093
735.050762	1.000452
735.381320	0.999616
735.711831	1.000191
736.042293	1.000342
736.372707	1.000483
736.703073	0.998582
737.033391	1.000099
737.363661	1.000708
737.693883	0.999599
738.024056	0.999215
738.354182	1.000513
738.684260	1.000529
739.014290	0.999783
739.344272	0.999457
739.674207	1.000104
740.004093	1.000824
740.333931	1.000831
740.663722	1.000402
740.993464	1.000325
741.323159	1.000233
741.652806	1.000111
741.982405	1.000385
742.311956	1.000555
742.641460	1.000085
742.970915	0.999491
743.300323	0.998639
743.629683	0.999579
743.958996	1.001078
744.288260	0.999333
744.617477	0.999617
744.946647	0.999364
745.275768	1.000764
745.604842	1.000078
745.933869	1.000661
746.262847	1.000190
746.591778	0.999091
746.920662	1.000571
747.249498	1.000377
747.578286	1.001612
747.907027	0.999948
748.235720	1.000182
748.564365	1.000780
748.892963	0.999440
749.221514	0.999877
749.550017	0.999291
749.878473	1.000513
750.206881	1.000972
750.535242	0.999979
750.863555	1.000182
751.191821	0.999948
751.520039	0.999726
751.848210	0.999712
752.176334	0.998974
752.504411	0.999477
752.832440	0.999213
753.160421	1.000850
753.488356	0.999545
753.816243	0.999813
754.144082	0.999953
754.471875	1.000221
754.799620	1.000540
755.127318	1.000059
755.454969	0.999688
755.782572	1.001218
756.110129	0.999824
756.437638	1.001740
756.765100	1.000670
757.092515	1.000302
757.419882	0.998856
757.747203	0.999376
758.074477	1.001637
758.401703	1.000289
758.728882	1.000340
759.056014	1.000027
759.383099	0.999628
759.710138	1.000334
760.037129	1.000725
760.364073	0.999732
760.690970	0.999798
761.017820	0.999147
761.344623	1.000185
761.671379	1.000279
761.998088	1.001002
762.324751	1.000506
762.651366	0.999671
762.977935	0.999306
763.304456	0.999712
763.630931	0.999005
763.957359	0.999795
764.283740	0.999277
764.610074	1.000399
764.936362	0.999348
765.262602	0.999821
765.588796	1.000704
765.914943	1.000151
766.241044	0.999689
766.567097	1.000193
766.893104	1.000672
767.219064	1.000191
767.544978	0.999561
767.870845	1.000653
768.196665	1.000338
768.522438	1.000113
768.848165	1.000661
769.173846	1.000162
769.499479	1.001390
769.825066	1.000979
770.150607	1.000671
770.476101	0.999862
770.801548	1.000996
771.126949	1.001365
771.452303	0.999573
771.777611	1.000455
772.102872	0.999713
772.428087	1.000429
772.753256	0.999910
773.078378	1.000593
773.403453	0.999886
773.728482	1.001989
774.053465	1.000962
774.378401	0.999992
774.703291	1.001299
775.028135	1.000126
775.352932	0.998315
775.677683	1.001416
776.002388	1.000528
776.327046	1.000133
776.651658	1.001443
776.976224	0.999848
777.300743	0.999256
777.625216	1.000419
777.949643	1.000650
778.274024	1.000122
778.598359	1.000965
778.922647	0.999662
779.246889	0.999951
779.571086	0.999893
779.895236	1.000930
780.219339	1.000704
780.543397	0.999212
780.867409	1.000602
781.191374	0.999726
781.515294	1.001656
781.839167	1.001779
782.162995	1.000569
782.486776	1.000324
782.810511	0.999948
783.134201	1.001159
783.457844	1.001249
783.781441	1.000015
784.104993	0.999618
784.428498	1.000517
784.751958	1.001611
785.075372	1.000503
785.398739	1.000416
785.722061	0.999802
786.045337	0.999529
786.368568	1.000719
786.691752	1.000416
787.014891	1.001317
787.337983	0.999437
787.661030	0.999758
787.984031	1.000696
788.306987	1.000688
788.629897	0.999523
788.952760	1.000160
789.275579	0.999543
789.598351	0.999952
789.921078	1.000953
790.243759	0.999040
790.566395	0.999628
790.888984	1.000688
791.211529	0.999590
791.534027	0.999967
791.856480	0.999983
792.178888	0.999227
792.501249	0.999077
792.823566	1.001451
793.145836	0.999423
793.468062	1.001010
793.790241	1.001163
794.112375	0.999534
794.434464	1.000736
794.756507	1.000381
795.078505	1.000128
795.400457	1.000377
795.722364	1.000375
796.044226	1.001115
796.366042	1.000579
796.687812	0.999556
797.009538	0.999746
797.331218	1.001038
797.652852	1.001168
797.974442	0.998975
798.295986	1.000594
798.617484	0.999495
798.938938	1.000471
799.260346	1.000031
799.581709	0.999922
799.903026	1.001229
800.224299	0.999858
800.545526	0.999567
800.866708	0.999595
801.187845	1.000078
801.508936	0.999927
801.829983	1.000694
802.150984	1.000056
802.471940	1.000377
802.792851	1.000367
803.113717	1.000515
803.434538	1.001009
803.755314	1.001374
804.076045	1.000143
804.396731	0.999692
804.717372	0.999485
805.037967	1.000220
805.358518	1.000376
805.679024	1.000000
805.999485	0.999973
806.319901	1.000509
806.640272	1.001667
806.960598	1.000439
807.280879	1.000268
807.601115	1.000340
807.921306	1.001253
808.241453	1.000383
808.561554	1.000070
808.881611	0.999838
809.201623	1.000431
809.521590	0.999388
809.841513	1.000307
810.161390	0.999702
810.481223	1.000233
810.801011	1.000959
811.120755	1.000520
811.440453	0.998761
811.760107	0.999833
812.079716	1.000501
812.399281	0.999655
812.718801	0.999857
813.038276	0.999845
813.357707	1.000532
813.677093	1.000180
813.996434	1.000669
814.315731	1.000664
814.634983	1.000116
814.954191	1.001188
815.273354	0.999627
815.592473	0.999972
815.911547	1.000533
816.230577	1.000609
816.549562	1.000767
816.868502	0.999027
817.187399	1.002102
817.506250	1.001759
817.825058	0.998983
818.143821	1.000891
818.462539	1.000154
818.781213	1.000840
819.099843	1.000775
819.418429	1.000407
819.736970	1.001442
820.055466	0.999572
820.373919	1.000500
820.692327	0.999411
821.010691	1.000553
821.329011	0.999573
821.647286	0.998025
821.965517	0.998735
822.283704	0.999232
822.601847	0.998853
822.919945	0.998257
823.237999	0.999233
823.556010	0.999526
823.873976	0.999632
824.191897	1.000111
824.509775	1.000301
824.827609	1.000736
825.145398	1.000440
825.463144	0.997870
825.780845	0.998930
826.098502	0.999218
826.416116	0.999948
826.733685	1.000319
827.051210	0.999209
827.368692	0.999361
827.686129	0.999403
828.003522	1.000233
828.320872	0.999227
828.638177	0.999567
828.955439	1.000943
829.272656	0.999618
829.589830	0.999413
829.906960	0.999959
830.224046	0.999786
830.541088	0.999415
830.858086	0.999212
831.175041	1.001352
831.491952	1.000322
831.808819	0.999991
832.125642	1.000005
832.442421	1.000240
832.759157	1.001676
833.075849	0.999353
833.392497	1.000179
833.709101	0.999067
834.025662	1.000353
834.342179	0.999617
834.658653	1.001028
834.975083	1.000747
835.291469	1.000537
835.607811	1.001177
835.924110	1.000383
836.240366	1.001520
836.556578	1.000304
836.872746	1.000749
837.188871	1.000156
837.504952	1.000782
837.820990	1.000794
838.136984	0.998905
838.452935	1.000003
838.768842	1.000010
839.084706	0.999201
839.400526	1.000413
839.716303	0.999086
840.032037	1.000823
840.347727	0.999949
840.663373	0.999988
840.978977	1.001123
841.294537	1.001206
841.610054	1.000219
841.925527	1.001537
842.240957	1.000672
842.556344	0.998646
842.871687	0.999609
843.186987	1.000227
843.502244	0.999906
843.817458	0.999697
844.132629	1.000263
844.447756	1.000280
844.762840	0.999374
845.077881	1.001173
845.392879	0.998611
845.707833	1.000210
846.022745	1.000735
846.337613	1.000322
846.652438	1.001056
846.967221	1.000194
847.281960	0.999904
847.596656	1.000846
847.911309	1.001232
848.225919	0.999698
848.540485	1.000455
848.855009	1.001470
849.169490	1.000445
849.483928	0.999726
849.798323	0.999469
850.112675	1.000571
850.426984	1.000650
850.741251	1.000440
851.055474	0.999877
851.369654	1.000632
851.683792	0.999753
851.997887	1.000798
852.311938	0.999918
852.625947	1.000353
852.939914	0.998976
853.253837	1.001192
853.567718	1.000869
853.881555	1.000910
854.195350	1.000434
854.509103	1.000350
854.822812	0.999951
855.136479	1.000625
855.450103	0.999234
855.763685	1.001266
856.077224	1.000525
856.390720	1.000141
856.704173	1.001844
857.017584	1.000385
857.330953	1.000697
857.644278	0.999965
857.957561	1.001148
858.270802	1.001863
858.584000	1.000028
858.897155	0.999642
859.210268	1.001170
859.523339	1.000498
859.836367	1.000950
860.149352	0.999379
860.462295	0.999979
860.775195	1.000974
861.088054	0.998235
861.400869	1.000020
861.713642	0.999148
862.026373	1.001300
862.339062	1.001301
862.651708	0.999783
862.964312	1.001547
863.276873	0.999827
863.589392	1.000590
863.901869	1.000845
864.214303	1.000627
864.526696	1.000520
864.839045	1.000605
865.151353	1.000852
865.463619	1.000550
865.775842	0.999837
866.088023	1.001294
866.400162	1.000331
866.712258	1.001299
867.024313	1.001169
867.336325	1.000918
867.648296	1.001732
867.960224	1.000460
868.272110	1.001345
868.583954	1.000498
868.895755	1.001723
869.207515	1.000413
869.519233	1.001191
869.830909	1.000296
870.142542	0.999727
870.454134	1.000011
870.765684	1.000094
871.077191	1.000525
871.388657	1.000771
871.700081	1.000410
872.011463	1.001200
872.322803	1.001364
872.634101	0.999441
872.945357	0.998332
873.256571	0.999728
873.567744	1.000635
873.878874	1.000097
874.189963	1.001092
874.501010	1.000759
874.812015	1.001343
875.122979	0.999807
875.433900	0.999657
875.744780	1.001595
876.055618	0.999511
876.366415	1.000310
876.677169	1.000275
876.987882	1.000340
877.298554	1.001321
877.609183	0.999962
877.919771	1.000750
878.230317	1.000700
878.540822	1.000013
878.851285	0.999941
879.161707	1.000307
879.472087	1.001669
879.782425	0.999980
880.092722	0.999715
880.402977	1.000356
880.713191	0.998984
881.023363	0.999489
881.333494	0.999792
881.643583	1.000445
881.953631	0.999625
882.263637	0.999476
882.573602	1.000728
882.883526	0.999712
883.193408	1.000572
883.503248	1.000215
883.813048	0.999160
884.122806	0.999837
884.432522	1.000287
884.742197	1.001549
885.051831	0.999255
885.361424	0.999480
885.670975	1.001802
885.980485	0.999509
886.289954	0.999799
886.599382	1.000104
886.908768	1.001907
887.218113	1.000731
887.527417	0.999994
887.836680	1.000647
888.145901	1.000536
888.455082	1.001643
888.764221	1.001343
889.073319	1.000490
889.382376	1.001221
889.691392	1.000761
890.000366	1.001060
890.309300	1.000088
890.618193	1.000626
890.927044	0.999089
891.235855	0.999134
891.544625	0.999525
891.853353	1.000325
892.162041	1.000886
892.470687	1.001341
892.779293	0.999660
893.087858	0.999712
893.396381	0.999936
893.704864	0.999847
894.013306	1.000238
894.321707	1.000784
894.630068	1.000633
894.938387	1.000221
895.246665	0.999800
895.554903	0.998376
895.863100	1.000004
896.171256	0.999565
896.479371	1.000091
896.787446	0.999273
897.095480	1.000131
897.403473	0.999678
897.711425	1.000458
898.019336	1.001472
898.327207	1.000795
898.635038	0.999116
898.942827	1.001012
899.250576	0.999837
899.558284	1.001375
899.865952	1.000156
900.173579	0.999238
900.481165	0.999960
900.788711	1.000516
901.096216	1.000593
901.403681	1.000259
901.711105	1.000722
902.018489	1.000370
902.325832	1.000059
902.633135	0.999532
902.940397	1.001075
903.247619	1.001025
903.554800	0.999974
903.861941	1.001127
904.169041	1.001101
904.476101	1.000094
904.783121	0.999682
905.090100	1.000621
905.397039	0.999177
905.703938	1.000605
906.010796	0.999305
906.317614	1.000066
906.624391	1.000483
906.931129	1.001062
907.237826	1.000181
907.544483	1.000857
907.851099	0.999082
908.157675	0.999799
908.464211	1.000908
908.770707	0.999242
909.077163	1.000090
909.383578	1.000096
909.689954	0.999213
909.996289	1.000653
910.302584	1.000339
910.608839	1.000872
910.915054	1.000313
911.221229	1.001665
911.527363	0.999120
911.833458	1.000636
912.139513	1.000700
912.445527	1.000990
912.751502	1.000946
913.057436	1.000098
913.363331	1.001387
913.669186	1.001496
913.975000	1.000729
914.280775	1.000126
914.586510	1.000126
914.892205	0.999729
915.197859	0.999962
915.503475	1.000300
915.809050	1.000772
916.114585	0.998590
916.420081	1.000121
916.725536	0.999206
917.030952	1.000488
917.336328	1.001286
917.641665	0.999536
917.946961	0.999440
918.252218	1.000324
918.557435	1.000100
918.862612	1.000547
919.167750	1.000578
919.472848	1.001229
919.777906	1.001193
920.082925	1.000890
920.387904	1.000141
920.692843	1.000944
920.997743	0.999825
921.302603	1.000960
921.607423	1.000074
921.912204	1.000368
922.216946	1.000392
922.521647	0.999909
922.826310	1.000182
923.130932	1.001143
923.435516	1.000731
923.740059	1.000410
924.044564	1.000358
924.349028	0.999528
924.653454	1.001164
924.957840	1.000349
925.262186	0.999960
925.566493	0.999524
925.870761	1.000497
926.174989	0.999654
926.479178	1.000818
926.783328	1.000783
927.087438	1.000201
927.391509	1.000198
927.695541	0.999434
927.999533	1.000140
928.303486	0.999317
928.607400	1.000722
928.911275	0.999524
929.215110	1.001526
929.518906	1.000402
929.822663	1.001728
930.126381	1.001816
930.430060	1.000129
930.733699	1.001144
931.037299	1.000966
931.340861	1.001370
931.644383	0.999865
931.947866	1.000902
932.251309	1.001051
932.554714	1.000828
932.858080	1.000463
933.161407	1.000706
933.464694	1.001223
933.767943	1.000777
934.071153	1.000406
934.374323	1.000475
934.677455	1.000981
934.980548	0.999761
935.283602	1.000317
935.586617	0.999397
935.889593	1.002332
936.192530	0.999136
936.495428	1.001169
936.798287	1.000267
937.101108	1.000280
937.403890	1.000805
937.706632	1.001995
938.009336	1.000865
938.312002	1.001402
938.614628	0.999913
938.917216	1.000862
939.219765	1.000414
939.522275	1.001912
939.824747	0.999718
940.127179	1.000212
940.429573	1.001543
940.731929	1.000799
941.034246	0.999716
941.336524	0.999369
941.638763	1.000064
941.940964	1.000459
942.243126	1.000535
942.545250	1.000826
942.847335	1.000614
943.149381	1.001974
943.451389	0.999855
943.753359	1.001090
944.055290	1.001215
944.357182	1.000447
944.659036	1.000605
944.960851	1.000349
945.262628	1.001208
945.564367	1.000837
945.866067	1.000322
946.167729	1.000873
946.469352	1.002016
946.770937	0.999304
947.072484	1.000847
947.373992	1.000484
947.675462	1.000823
947.976893	0.999939
948.278286	1.001682
948.579641	1.001241
948.880958	1.000030
949.182236	1.000544
949.483476	1.000553
949.784678	0.999799
950.085841	0.999985
950.386967	1.000084
950.688054	1.001083
950.989103	0.999363
951.290114	0.999361
951.591087	1.000976
951.892021	0.999421
952.192917	1.000537
952.493776	1.000078
952.794596	1.000115
953.095378	1.001054
953.396122	1.001646
953.696828	1.000733
953.997496	1.001492
954.298126	1.001423
954.598718	1.000093
954.899272	1.000802
955.199788	0.999493
955.500266	1.000785
955.800706	1.000741
956.101108	0.999431
956.401472	1.001527
956.701798	1.001340
957.002087	0.999504
957.302337	1.000330
957.602550	1.000770
957.902724	1.000448
958.202861	0.999432
958.502960	0.999011
958.803022	1.001034
959.103045	0.999229
959.403031	1.001593
959.702979	1.000418
960.002889	0.999803
960.302762	1.000271
960.602596	1.001851
960.902393	1.000796
961.202153	1.001191
961.501875	1.000478
961.801559	1.000933
962.101205	0.999482
962.400814	1.001155
962.700385	1.000367
962.999918	0.999938
963.299414	0.999308
963.598873	1.000350
963.898293	1.000285
964.197677	1.000799
964.497022	1.001147
964.796331	0.999486
965.095601	1.000534
965.394835	0.999782
965.694030	1.001263
965.993189	0.999489
966.292309	1.000580
966.591393	0.999150
966.890439	1.001169
967.189447	0.999749
967.488419	1.000683
967.787353	1.000009
968.086249	0.999560
968.385108	1.001299
968.683930	1.001334
968.982714	0.999290
969.281462	1.001233
969.580172	0.999996
969.878844	1.000846
970.177480	0.999858
970.476078	1.001202
970.774639	1.000230
971.073162	0.999832
971.371649	1.000758
971.670098	1.000258
971.968510	1.000707
972.266885	0.999795
972.565223	1.000423
972.863524	0.999820
973.161788	1.000461
973.460014	1.001647
973.758204	0.999843
974.056356	1.000803
974.354471	0.999731
974.652550	1.002107
974.950591	0.999799
975.248595	1.000821
975.546563	1.001133
975.844493	1.001687
976.142386	0.999625
976.440243	1.001240
976.738062	1.001228
977.035845	0.999733
977.333590	1.000705
977.631299	1.000236
977.928971	1.000370
978.226606	0.999567
978.524204	0.999972
978.821765	1.000347
979.119290	1.001711
979.416777	1.000559
979.714228	0.999461
980.011642	1.001151
980.309020	0.999235
980.606360	1.000728
980.903664	1.000352
981.200931	0.999563
981.498162	1.000123
981.795356	1.000175
982.092513	1.000182
982.389633	1.002119
982.686717	0.999900
982.983764	0.999344
983.280775	1.001010
983.577749	0.999691
983.874686	1.000546
984.171587	0.999751
984.468451	0.999963
984.765279	1.000764
985.062070	1.000978
985.358824	1.000306
985.655543	0.999978
985.952224	1.001596
986.248869	0.999653
986.545478	1.001035
986.842050	1.001501
987.138586	1.000644
987.435086	0.999726
987.731549	1.001840
988.027975	1.000507
988.324366	1.000141
988.620719	1.001095
988.917037	1.000545
989.213318	1.000899
989.509563	1.001363
989.805772	1.001177
990.101944	1.001306
990.398080	0.999529
990.694180	1.001186
990.990244	0.999628
991.286271	1.000858
991.582262	1.000918
991.878217	0.999906
992.174136	1.001176
992.470019	1.000928
992.765865	1.001080
993.061676	1.000578
993.357450	1.000590
993.653188	1.001663
993.948890	1.000426
994.244556	1.000374
994.540186	0.999916
994.835780	0.999919
995.131337	1.000540
995.426859	1.000757
995.722345	1.000735
996.017795	0.999752
996.313208	0.999779
996.608586	1.000480
996.903928	1.001424
997.199234	1.000497
997.494504	1.001275
997.789738	0.999463
998.084936	1.000399
998.380099	1.000858
998.675225	1.001860
998.970316	1.000028
999.265371	1.000808
999.560390	1.000107
999.855373	1.000548
1000.150320	1.000862
1000.445232	1.000075
1000.740108	1.000684
1001.034948	1.000024
1001.329752	1.001185
1001.624521	1.001125
1001.919254	0.999905
1002.213951	0.999615
1002.508613	1.000441
1002.803239	0.999651
1003.097829	1.000321
1003.392384	1.000807
1003.686903	1.000280
1003.981386	1.000188
1004.275834	1.001465
1004.570246	0.999321
1004.864623	1.001220
1005.158964	1.001163
1005.453270	1.000274
1005.747540	0.999242
1006.041775	1.000380
1006.335974	1.000340
1006.630138	1.000275
1006.924266	0.999766
1007.218359	0.999604
1007.512416	1.001431
1007.806438	0.999311
1008.100425	1.000552
1008.394376	1.000346
1008.688292	0.999657
1008.982172	0.999180
1009.276017	1.001603
1009.569827	1.001555
1009.863602	1.000046
1010.157341	1.002122
1010.451045	1.001150
1010.744714	1.001928
1011.038347	1.000490
1011.331945	1.000425
1011.625508	1.001053
1011.919036	1.000289
1012.212528	1.001112
1012.505986	0.999684
1012.799408	1.001447
1013.092795	1.000365
1013.386147	1.001305
1013.679464	1.002003
1013.972745	1.000813
1014.265992	1.000764
1014.559204	0.999413
1014.852380	1.001506
1015.145521	1.001154
1015.438628	0.999861
1015.731699	1.000123
1016.024736	1.001223
1016.317737	1.001655
1016.610703	1.001986
1016.903635	1.000763
1017.196531	1.000456
1017.489393	1.000057
1017.782219	0.999996
1018.075011	0.999591
1018.367768	0.999855
1018.660490	0.999746
1018.953177	0.999746
1019.245829	0.999746
