Dividing Wavelength (nm)	Blue Motor Position (mm)	Red Motor Position (mm)	
394.000000	48.927363	3.036400
394.100000	48.852963	3.046507
394.200000	48.784026	3.056614
394.300000	48.717656	3.066720
394.400000	48.650956	3.076827
394.500000	48.581031	3.086934
394.600000	48.504982	3.097041
394.700000	48.420824	3.107148
394.800000	48.330420	3.117254
394.900000	48.236639	3.127361
395.000000	48.142349	3.137468
395.100000	48.050418	3.147575
395.200000	47.963341	3.157682
395.300000	47.879640	3.167788
395.400000	47.797882	3.177895
395.500000	47.717089	3.188002
395.600000	47.636285	3.198109
395.700000	47.554493	3.208216
395.800000	47.470716	3.218322
395.900000	47.384413	3.228429
396.000000	47.296661	3.238536
396.100000	47.208775	3.248643
396.200000	47.122069	3.258750
396.300000	47.037859	3.268856
396.400000	46.956973	3.278963
396.500000	46.877718	3.289070
396.600000	46.799893	3.299177
396.700000	46.723618	3.309284
396.800000	46.649015	3.319390
396.900000	46.576205	3.329497
397.000000	46.505307	3.339604
397.100000	46.436767	3.349711
397.200000	46.370667	3.359818
397.300000	46.306357	3.369924
397.400000	46.243189	3.380031
397.500000	46.180513	3.390138
397.600000	46.117678	3.400245
397.700000	46.054035	3.410352
397.800000	45.988951	3.420458
397.900000	45.922771	3.430565
398.000000	45.856014	3.440672
398.100000	45.788859	3.450779
398.200000	45.721488	3.460886
398.300000	45.654078	3.470992
398.400000	45.586809	3.481099
398.500000	45.519862	3.491206
398.600000	45.453331	3.501313
398.700000	45.387036	3.511420
398.800000	45.320901	3.521526
398.900000	45.254858	3.531633
399.000000	45.188843	3.541740
399.100000	45.122789	3.551847
399.200000	45.056631	3.561954
399.300000	44.990292	3.572060
399.400000	44.923202	3.582167
399.500000	44.855407	3.592274
399.600000	44.787382	3.602381
399.700000	44.719601	3.612488
399.800000	44.652541	3.622594
399.900000	44.586677	3.632701
400.000000	44.522484	3.642808
400.100000	44.460093	3.652915
400.200000	44.398573	3.663022
400.300000	44.337887	3.673128
400.400000	44.278097	3.683235
400.500000	44.219264	3.693342
400.600000	44.161449	3.703449
400.700000	44.104713	3.713556
400.800000	44.049118	3.723662
400.900000	43.994723	3.733769
401.000000	43.941361	3.743876
401.100000	43.888877	3.753983
401.200000	43.837248	3.764090
401.300000	43.786450	3.774196
401.400000	43.736460	3.784303
401.500000	43.687257	3.794410
401.600000	43.638816	3.804517
401.700000	43.591114	3.814624
401.800000	43.544130	3.824730
401.900000	43.497839	3.834837
402.000000	43.452081	3.844944
402.100000	43.406764	3.855051
402.200000	43.361938	3.865158
402.300000	43.317649	3.875264
402.400000	43.273944	3.885371
402.500000	43.230870	3.895478
402.600000	43.188476	3.905585
402.700000	43.146808	3.915692
402.800000	43.105914	3.925798
402.900000	43.065840	3.935905
403.000000	43.026635	3.946012
403.100000	42.988359	3.955396
403.200000	42.951207	3.963654
403.300000	42.915116	3.971271
403.400000	42.879936	3.978726
403.500000	42.845519	3.986503
403.600000	42.811716	3.995084
403.700000	42.778377	4.004949
403.800000	42.745355	4.016582
403.900000	42.712500	4.030465
404.000000	42.679664	4.047080
404.100000	42.646697	4.083718
404.200000	42.613451	4.131077
404.300000	42.579777	4.154306
404.400000	42.545526	4.168103
404.500000	42.510550	4.180119
404.600000	42.474732	4.190563
404.700000	42.438157	4.199643
404.800000	42.400969	4.207570
404.900000	42.363307	4.214550
405.000000	42.325313	4.220794
405.100000	42.287127	4.226510
405.200000	42.248889	4.231907
405.300000	42.210741	4.237195
405.400000	42.172822	4.242581
405.500000	42.135274	4.248274
405.600000	42.098238	4.254026
405.700000	42.061853	4.259150
405.800000	42.026261	4.263710
405.900000	41.991591	4.267788
406.000000	41.957658	4.271461
406.100000	41.924304	4.274808
406.200000	41.891463	4.277911
406.300000	41.859069	4.280848
406.400000	41.827057	4.283699
406.500000	41.795360	4.286542
406.600000	41.763913	4.289459
406.700000	41.732650	4.292527
406.800000	41.701505	4.295827
406.900000	41.670412	4.299438
407.000000	41.639306	4.303439
407.100000	41.608120	4.307910
407.200000	41.576790	4.312930
407.300000	41.545248	4.318580
407.400000	41.513430	4.324937
407.500000	41.481322	4.332083
407.600000	41.449122	4.340095
407.700000	41.416865	4.349055
407.800000	41.384559	4.368876
407.900000	41.352212	4.404796
408.000000	41.319833	4.438783
408.100000	41.287430	4.454361
408.200000	41.255013	4.462668
408.300000	41.222589	4.469884
408.400000	41.190168	4.476113
408.500000	41.157757	4.481460
408.600000	41.125366	4.486032
408.700000	41.093003	4.489934
408.800000	41.060677	4.493270
408.900000	41.028396	4.496146
409.000000	40.996167	4.498668
409.100000	40.963918	4.500940
409.200000	40.931610	4.503070
409.300000	40.899264	4.505160
409.400000	40.866896	4.507317
409.500000	40.834525	4.509647
409.600000	40.802170	4.512254
409.700000	40.769849	4.515244
409.800000	40.737579	4.518722
409.900000	40.705380	4.522795
410.000000	40.673269	4.527565
410.100000	40.641266	4.533141
410.200000	40.609388	4.539626
410.300000	40.577653	4.547126
410.400000	40.546080	4.556818
410.500000	40.514687	4.577850
410.600000	40.483566	4.606176
410.700000	40.453068	4.634130
410.800000	40.423139	4.654059
410.900000	40.393660	4.666970
411.000000	40.364515	4.678130
411.100000	40.335584	4.687864
411.200000	40.306751	4.696502
411.300000	40.277898	4.704366
411.400000	40.248907	4.711786
411.500000	40.219659	4.719087
411.600000	40.190038	4.726598
411.700000	40.159926	4.734643
411.800000	40.129205	4.743549
411.900000	40.097756	4.753643
412.000000	40.065463	4.765142
412.100000	40.032208	4.777811
412.200000	39.997870	4.791312
412.300000	39.961611	4.805311
412.400000	39.923134	4.819470
412.500000	39.882877	4.833452
412.600000	39.841277	4.846919
412.700000	39.798771	4.859487
412.800000	39.755796	4.870422
412.900000	39.712789	4.880105
413.000000	39.670186	4.889216
413.100000	39.628426	4.898435
413.200000	39.587945	4.908445
413.300000	39.549180	4.919924
413.400000	39.512569	4.933556
413.500000	39.478204	4.950018
413.600000	39.445052	4.975615
413.700000	39.412904	5.018641
413.800000	39.381651	5.055096
413.900000	39.351180	5.074178
414.000000	39.321382	5.089704
414.100000	39.292145	5.102673
414.200000	39.263358	5.113869
414.300000	39.234912	5.124076
414.400000	39.206693	5.134076
414.500000	39.178593	5.144655
414.600000	39.150500	5.156593
414.700000	39.122303	5.169938
414.800000	39.093892	5.183624
414.900000	39.065155	5.197557
415.000000	39.035982	5.211673
415.100000	39.006261	5.225908
415.200000	38.976071	5.240196
415.300000	38.945764	5.254473
415.400000	38.915363	5.268765
415.500000	38.884875	5.283324
415.600000	38.854310	5.298042
415.700000	38.823678	5.312779
415.800000	38.792987	5.327389
415.900000	38.762247	5.341731
416.000000	38.731466	5.355660
416.100000	38.700654	5.369153
416.200000	38.669820	5.382554
416.300000	38.638973	5.395826
416.400000	38.608123	5.408885
416.500000	38.577277	5.421646
416.600000	38.546446	5.434023
416.700000	38.515638	5.445932
416.800000	38.484823	5.457287
416.900000	38.453772	5.467862
417.000000	38.422495	5.477099
417.100000	38.391047	5.485282
417.200000	38.359483	5.492789
417.300000	38.327856	5.500004
417.400000	38.296223	5.507306
417.500000	38.264637	5.515077
417.600000	38.233152	5.523697
417.700000	38.201825	5.533548
417.800000	38.170708	5.545010
417.900000	38.139858	5.558465
418.000000	38.109328	5.577383
418.100000	38.079173	5.607161
418.200000	38.049448	5.640009
418.300000	38.020208	5.667455
418.400000	37.991498	5.688330
418.500000	37.963220	5.706505
418.600000	37.935306	5.724171
418.700000	37.907726	5.743515
418.800000	37.880452	5.766744
418.900000	37.853455	5.799243
419.000000	37.826706	5.836479
419.100000	37.800176	5.867448
419.200000	37.773835	5.890926
419.300000	37.747656	5.911968
419.400000	37.721608	5.930874
419.500000	37.695663	5.947950
419.600000	37.669793	5.963498
419.700000	37.643968	5.977654
419.800000	37.618158	5.990317
419.900000	37.592336	6.001828
420.000000	37.566472	6.012546
420.100000	37.540537	6.022834
420.200000	37.514503	6.033052
420.300000	37.488359	6.043563
420.400000	37.462234	6.054727
420.500000	37.436154	6.066906
420.600000	37.410117	6.079205
420.700000	37.384122	6.090485
420.800000	37.358167	6.101865
420.900000	37.332249	6.114488
421.000000	37.306367	6.129494
421.100000	37.280518	6.148028
421.200000	37.254702	6.171399
421.300000	37.228915	6.226277
421.400000	37.203155	6.272161
421.500000	37.177422	6.289496
421.600000	37.151713	6.303225
421.700000	37.126025	6.314088
421.800000	37.100358	6.322822
421.900000	37.074709	6.330168
422.000000	37.049075	6.336864
422.100000	37.023456	6.343652
422.200000	36.997849	6.351270
422.300000	36.972254	6.360457
422.400000	36.946672	6.371952
422.500000	36.921104	6.386156
422.600000	36.895553	6.402448
422.700000	36.870020	6.420024
422.800000	36.844507	6.438086
422.900000	36.819015	6.455832
423.000000	36.793546	6.472459
423.100000	36.768103	6.487353
423.200000	36.742686	6.500957
423.300000	36.717298	6.514075
423.400000	36.691939	6.527510
423.500000	36.666613	6.542063
423.600000	36.641319	6.558537
423.700000	36.616061	6.577825
423.800000	36.590840	6.602939
423.900000	36.565658	6.632614
424.000000	36.540515	6.663559
424.100000	36.515415	6.694474
424.200000	36.490353	6.728295
424.300000	36.465276	6.759580
424.400000	36.440178	6.782651
424.500000	36.415070	6.800528
424.600000	36.389962	6.815775
424.700000	36.364863	6.829301
424.800000	36.339782	6.842013
424.900000	36.314730	6.854821
425.000000	36.289717	6.868632
425.100000	36.264752	6.884159
425.200000	36.239844	6.900512
425.300000	36.215005	6.917341
425.400000	36.190243	6.934539
425.500000	36.165568	6.951995
425.600000	36.140991	6.969599
425.700000	36.116520	6.987034
425.800000	36.092165	7.003494
425.900000	36.067937	7.019837
426.000000	36.043846	7.037136
426.100000	36.019900	7.056474
426.200000	35.996110	7.078925
426.300000	35.972495	7.110042
426.400000	35.949053	7.147418
426.500000	35.925769	7.179874
426.600000	35.902628	7.204553
426.700000	35.879618	7.226691
426.800000	35.856724	7.246781
426.900000	35.833931	7.265313
427.000000	35.811226	7.282756
427.100000	35.788595	7.296443
427.200000	35.766023	7.306122
427.300000	35.743496	7.314379
427.400000	35.721000	7.323800
427.500000	35.698522	7.336973
427.600000	35.676047	7.356485
427.700000	35.653561	7.386975
427.800000	35.631049	7.490772
427.900000	35.608499	7.511368
428.000000	35.585895	7.525380
428.100000	35.563223	7.534611
428.200000	35.540470	7.540864
428.300000	35.517622	7.545939
428.400000	35.494668	7.551638
428.500000	35.471708	7.559763
428.600000	35.448781	7.572116
428.700000	35.425880	7.591928
428.800000	35.402995	7.635342
428.900000	35.380118	7.680321
429.000000	35.357239	7.707221
429.100000	35.334351	7.728404
429.200000	35.311444	7.746955
429.300000	35.288511	7.765583
429.400000	35.265541	7.786994
429.500000	35.242528	7.801550
429.600000	35.219461	7.812687
429.700000	35.196333	7.841220
429.800000	35.173134	7.992652
429.900000	35.149857	8.008157
430.000000	35.126492	8.020668
430.100000	35.103030	8.030546
430.200000	35.079464	8.038147
430.300000	35.055784	8.043832
430.400000	35.031982	8.047961
430.500000	35.008048	8.050891
430.600000	34.983931	8.052983
430.700000	34.959495	8.054595
430.800000	34.934769	8.056087
430.900000	34.909792	8.057817
431.000000	34.884605	8.060146
431.100000	34.859246	8.063431
431.200000	34.833757	8.068034
431.300000	34.808176	8.074311
431.400000	34.782544	8.082623
431.500000	34.756900	8.093736
431.600000	34.731285	8.113276
431.700000	34.705738	8.140525
431.800000	34.680298	8.172349
431.900000	34.655007	8.208746
432.000000	34.629903	8.259028
432.100000	34.605026	8.294526
432.200000	34.580417	8.311690
432.300000	34.556115	8.323154
432.400000	34.532160	8.331120
432.500000	34.508591	8.337790
432.600000	34.485417	8.345362
432.700000	34.462531	8.356038
432.800000	34.439904	8.372021
432.900000	34.417516	8.396578
433.000000	34.395347	8.490931
433.100000	34.373377	8.533313
433.200000	34.351586	8.563564
433.300000	34.329955	8.586189
433.400000	34.308463	8.604766
433.500000	34.287090	8.619410
433.600000	34.265818	8.631123
433.700000	34.244625	8.641206
433.800000	34.223492	8.650964
433.900000	34.202400	8.661703
434.000000	34.181327	8.674727
434.100000	34.160255	8.691341
434.200000	34.139163	8.716479
434.300000	34.118032	8.753357
434.400000	34.096842	8.790174
434.500000	34.075572	8.820015
434.600000	34.054203	8.848461
434.700000	34.032716	8.874261
434.800000	34.011089	8.895783
434.900000	33.989326	8.912545
435.000000	33.967550	8.926340
435.100000	33.945779	8.938160
435.200000	33.924011	8.948978
435.300000	33.902242	8.959766
435.400000	33.880469	8.971496
435.500000	33.858687	8.985140
435.600000	33.836893	9.001685
435.700000	33.815083	9.022766
435.800000	33.793254	9.047889
435.900000	33.771403	9.075485
436.000000	33.749525	9.104038
436.100000	33.727617	9.135935
436.200000	33.705675	9.169908
436.300000	33.683696	9.201404
436.400000	33.661676	9.229086
436.500000	33.639611	9.255038
436.600000	33.617498	9.279775
436.700000	33.595333	9.303807
436.800000	33.573113	9.326648
436.900000	33.550834	9.348325
437.000000	33.528493	9.369832
437.100000	33.506084	9.392163
437.200000	33.483547	9.416474
437.300000	33.460739	9.443398
437.400000	33.437687	9.470842
437.500000	33.414427	9.496430
437.600000	33.390995	9.518091
437.700000	33.367426	9.536438
437.800000	33.343757	9.553345
437.900000	33.320021	9.570684
438.000000	33.296256	9.590321
438.100000	33.272496	9.614617
438.200000	33.248778	9.648483
438.300000	33.225136	9.684519
438.400000	33.201607	9.712552
438.500000	33.178227	9.731835
438.600000	33.155029	9.747052
438.700000	33.132052	9.761648
438.800000	33.109329	9.779061
438.900000	33.086897	9.802735
439.000000	33.064791	9.849530
439.100000	33.043046	9.905590
439.200000	33.021700	9.931767
439.300000	33.000786	9.951064
439.400000	32.980304	9.966450
439.500000	32.960206	9.980554
439.600000	32.940463	9.996010
439.700000	32.921045	10.015299
439.800000	32.901923	10.037132
439.900000	32.883067	10.060599
440.000000	32.864448	10.085921
440.100000	32.846037	10.113347
440.200000	32.827803	10.146760
440.300000	32.809719	10.182978
440.400000	32.791753	10.213614
440.500000	32.773878	10.237389
440.600000	32.756063	10.258318
440.700000	32.738279	10.277463
440.800000	32.720497	10.295890
440.900000	32.702687	10.314648
441.000000	32.684821	10.331742
441.100000	32.666867	10.346732
441.200000	32.648798	10.361851
441.300000	32.630584	10.379330
441.400000	32.612194	10.401399
441.500000	32.593601	10.433933
441.600000	32.574774	10.487354
441.700000	32.555685	10.540661
441.800000	32.536303	10.594140
441.900000	32.516599	10.631308
442.000000	32.496543	10.658634
442.100000	32.476064	10.681419
442.200000	32.455164	10.702137
442.300000	32.433887	10.723138
442.400000	32.412274	10.743832
442.500000	32.390368	10.763608
442.600000	32.368211	10.782608
442.700000	32.345846	10.800974
442.800000	32.323315	10.818848
442.900000	32.300659	10.834428
443.000000	32.277922	10.847328
443.100000	32.255146	10.859651
443.200000	32.232374	10.873501
443.300000	32.209646	10.890979
443.400000	32.187007	10.914189
443.500000	32.164497	10.964955
443.600000	32.142160	11.022323
443.700000	32.120038	11.045675
443.800000	32.098173	11.061966
443.900000	32.076608	11.074318
444.000000	32.055384	11.085854
444.100000	32.034545	11.099696
444.200000	32.014132	11.118967
444.300000	31.994175	11.151869
444.400000	31.974505	11.195142
444.500000	31.955046	11.228074
444.600000	31.935786	11.250621
444.700000	31.916716	11.269514
444.800000	31.897825	11.286339
444.900000	31.879103	11.302684
445.000000	31.860539	11.320136
445.100000	31.842124	11.339300
445.200000	31.823846	11.358789
445.300000	31.805695	11.378441
445.400000	31.787662	11.398141
445.500000	31.769735	11.417778
445.600000	31.751905	11.436820
445.700000	31.734160	11.454326
445.800000	31.716491	11.471645
445.900000	31.698887	11.490315
446.000000	31.681337	11.511868
446.100000	31.663832	11.537345
446.200000	31.646361	11.567068
446.300000	31.628913	11.609602
446.400000	31.611479	11.706078
446.500000	31.594048	11.769670
446.600000	31.576609	11.818778
446.700000	31.559152	11.860273
446.800000	31.541666	11.893104
446.900000	31.524142	11.916219
447.000000	31.506569	11.928565
447.100000	31.488959	11.897013
447.200000	31.471387	11.830972
447.300000	31.453860	11.860404
447.400000	31.436375	11.913299
447.500000	31.418931	11.972188
447.600000	31.401526	12.019595
447.700000	31.384158	12.044256
447.800000	31.366825	12.062278
447.900000	31.349526	12.077154
448.000000	31.332259	12.090097
448.100000	31.315021	12.102317
448.200000	31.297812	12.115027
448.300000	31.280629	12.129440
448.400000	31.263471	12.143477
448.500000	31.246335	12.153466
448.600000	31.229220	12.163623
448.700000	31.212124	12.178365
448.800000	31.195046	12.202115
448.900000	31.177983	12.253794
449.000000	31.160934	12.355734
449.100000	31.143896	12.378751
449.200000	31.126869	12.393324
449.300000	31.109850	12.402651
449.400000	31.092837	12.409931
449.500000	31.075829	12.418364
449.600000	31.058824	12.431148
449.700000	31.041820	12.449741
449.800000	31.024815	12.471016
449.900000	31.007808	12.494380
450.000000	30.990800	12.519428
450.100000	30.973813	12.546122
450.200000	30.956848	12.577398
450.300000	30.939903	12.610096
450.400000	30.922979	12.639297
450.500000	30.906072	12.663330
450.600000	30.889183	12.684807
450.700000	30.872310	12.705802
450.800000	30.855451	12.728390
450.900000	30.838606	12.754871
451.000000	30.821774	12.785708
451.100000	30.804952	12.816945
451.200000	30.788140	12.844374
451.300000	30.771337	12.867387
451.400000	30.754542	12.888240
451.500000	30.737753	12.908666
451.600000	30.720968	12.930397
451.700000	30.704188	12.955276
451.800000	30.687410	12.983658
451.900000	30.670633	13.012730
452.000000	30.653857	13.039445
452.100000	30.637080	13.061387
452.200000	30.620300	13.079986
452.300000	30.603517	13.098095
452.400000	30.586729	13.118574
452.500000	30.569935	13.144289
452.600000	30.553135	13.183306
452.700000	30.536325	13.229202
452.800000	30.519507	13.269649
452.900000	30.502677	13.309003
453.000000	30.485832	13.340828
453.100000	30.468968	13.360728
453.200000	30.452085	13.373677
453.300000	30.435187	13.383047
453.400000	30.418275	13.392085
453.500000	30.401352	13.404041
453.600000	30.384420	13.422165
453.700000	30.367481	13.451486
453.800000	30.350537	13.551922
453.900000	30.333591	13.588041
454.000000	30.316645	13.612679
454.100000	30.299700	13.631208
454.200000	30.282760	13.648997
454.300000	30.265826	13.666213
454.400000	30.248900	13.680684
454.500000	30.231985	13.693673
454.600000	30.215083	13.706440
454.700000	30.198197	13.720246
454.800000	30.181327	13.736352
454.900000	30.164478	13.756166
455.000000	30.147649	13.782095
455.100000	30.130845	13.812474
455.200000	30.114067	13.844530
455.300000	30.097318	13.876700
455.400000	30.080599	13.910821
455.500000	30.063913	13.948146
455.600000	30.047261	13.997632
455.700000	30.030647	14.059792
455.800000	30.014072	14.116806
455.900000	29.997539	14.150754
456.000000	29.981028	14.075931
456.100000	29.964529	14.178759
456.200000	29.948042	14.254927
456.300000	29.931569	14.273359
456.400000	29.915110	14.286606
456.500000	29.898667	14.295950
456.600000	29.882240	14.302678
456.700000	29.865831	14.308074
456.800000	29.849440	14.313424
456.900000	29.833068	14.320012
457.000000	29.816716	14.329121
457.100000	29.800386	14.342038
457.200000	29.784077	14.361340
457.300000	29.767792	14.422938
457.400000	29.751530	14.516431
457.500000	29.735293	14.606258
457.600000	29.719083	14.656862
457.700000	29.702899	14.492818
457.800000	29.686742	14.649410
457.900000	29.670615	14.761509
458.000000	29.654517	14.790065
458.100000	29.638449	14.810308
458.200000	29.622413	14.825202
458.300000	29.606410	14.837712
458.400000	29.590440	14.850802
458.500000	29.574504	14.867262
458.600000	29.558604	14.886669
458.700000	29.542739	14.907874
458.800000	29.526912	14.930166
458.900000	29.511124	14.952839
459.000000	29.495374	14.975183
459.100000	29.479666	14.996490
459.200000	29.464000	15.016053
459.300000	29.448373	15.033160
459.400000	29.432786	15.047107
459.500000	29.417235	15.057182
459.600000	29.401720	15.062677
459.700000	29.386238	15.021119
459.800000	29.370790	14.964596
459.900000	29.355372	14.984212
460.000000	29.339985	15.019076
460.100000	29.324625	15.062864
460.200000	29.309292	15.109253
460.300000	29.293984	15.151920
460.400000	29.278700	15.188245
460.500000	29.263439	15.225029
460.600000	29.248197	15.258410
460.700000	29.232976	15.284930
460.800000	29.217772	15.307009
460.900000	29.202584	15.327496
461.000000	29.187411	15.349160
461.100000	29.172252	15.374399
461.200000	29.157104	15.400685
461.300000	29.141967	15.431434
461.400000	29.126838	15.473111
461.500000	29.111718	15.555408
461.600000	29.096603	15.584794
461.700000	29.081492	15.600681
461.800000	29.066385	15.611122
461.900000	29.051278	15.618346
462.000000	29.036172	15.624588
462.100000	29.021065	15.632076
462.200000	29.005955	15.643044
462.300000	28.990858	15.659720
462.400000	28.975842	15.699519
462.500000	28.960907	15.799864
462.600000	28.946046	15.870492
462.700000	28.931251	15.775865
462.800000	28.916516	15.793440
462.900000	28.901832	15.820487
463.000000	28.887193	15.853511
463.100000	28.872590	15.889020
463.200000	28.858017	15.923523
463.300000	28.843466	15.953526
463.400000	28.828930	15.975603
463.500000	28.814402	15.991600
463.600000	28.799873	16.004811
463.700000	28.785337	16.016544
463.800000	28.770786	16.028108
463.900000	28.756214	16.040811
464.000000	28.741611	16.055963
464.100000	28.726972	16.074879
464.200000	28.712288	16.105769
464.300000	28.697553	16.144377
464.400000	28.682759	16.175111
464.500000	28.667898	16.193671
464.600000	28.652964	16.207681
464.700000	28.637948	16.219132
464.800000	28.622844	16.230014
464.900000	28.607643	16.242317
465.000000	28.592340	16.258031
465.100000	28.576925	16.279420
465.200000	28.561393	16.326471
465.300000	28.545734	16.392418
465.400000	28.529944	16.451612
465.500000	28.514012	16.478408
465.600000	28.497932	16.436136
465.700000	28.481633	16.379826
465.800000	28.465087	16.389107
465.900000	28.448313	16.429374
466.000000	28.431328	16.485167
466.100000	28.414150	16.542634
466.200000	28.396799	16.588084
466.300000	28.379293	16.620003
466.400000	28.361649	16.655777
466.500000	28.343887	16.733032
466.600000	28.326023	16.792857
466.700000	28.308077	16.812221
466.800000	28.290068	16.825906
466.900000	28.272012	16.835538
467.000000	28.253929	16.842748
467.100000	28.235837	16.849159
467.200000	28.217753	16.856401
467.300000	28.199697	16.866100
467.400000	28.181687	16.879884
467.500000	28.163741	16.900510
467.600000	28.145877	16.928295
467.700000	28.128113	16.958860
467.800000	28.110468	16.987813
467.900000	28.092960	17.015107
468.000000	28.075608	17.042382
468.100000	28.058429	17.069881
468.200000	28.041442	17.098294
468.300000	28.024666	17.129360
468.400000	28.008117	17.159504
468.500000	27.991792	17.184317
468.600000	27.975555	17.202636
468.700000	27.959385	17.217822
468.800000	27.943280	17.230996
468.900000	27.927242	17.243262
469.000000	27.911269	17.255724
469.100000	27.895362	17.269484
469.200000	27.879520	17.285648
469.300000	27.863744	17.302963
469.400000	27.848033	17.320703
469.500000	27.832387	17.342073
469.600000	27.816805	17.370294
469.700000	27.801289	17.423080
469.800000	27.785837	17.491189
469.900000	27.770449	17.507540
470.000000	27.755126	17.518461
470.100000	27.739867	17.525270
470.200000	27.724672	17.529282
470.300000	27.709541	17.531812
470.400000	27.694474	17.534176
470.500000	27.679470	17.537688
470.600000	27.664530	17.543666
470.700000	27.649653	17.553423
470.800000	27.634839	17.568277
470.900000	27.620088	17.589542
471.000000	27.605401	17.725136
471.100000	27.590775	17.754855
471.200000	27.576213	17.770634
471.300000	27.561713	17.787020
471.400000	27.547275	17.812536
471.500000	27.532900	17.839364
471.600000	27.518586	17.864994
471.700000	27.504334	17.887294
471.800000	27.490148	17.904592
471.900000	27.476033	17.917918
472.000000	27.461990	17.928836
472.100000	27.448016	17.938873
472.200000	27.434109	17.949553
472.300000	27.420268	17.962402
472.400000	27.406490	17.978946
472.500000	27.392773	18.002206
472.600000	27.379116	18.051497
472.700000	27.365517	18.096353
472.800000	27.351973	18.121075
472.900000	27.338483	18.140487
473.000000	27.325045	18.157008
473.100000	27.311657	18.173051
473.200000	27.298317	18.191035
473.300000	27.285023	18.213004
473.400000	27.271773	18.237890
473.500000	27.258565	18.263082
473.600000	27.245398	18.285955
473.700000	27.232268	18.304213
473.800000	27.219176	18.319423
473.900000	27.206117	18.332822
474.000000	27.193091	18.345055
474.100000	27.180096	18.356762
474.200000	27.167129	18.368588
474.300000	27.154190	18.381178
474.400000	27.141275	18.395173
474.500000	27.128382	18.408353
474.600000	27.115511	18.417069
474.700000	27.102659	18.426212
474.800000	27.089824	18.440986
474.900000	27.077004	18.466594
475.000000	27.064197	18.574333
475.100000	27.051401	18.632376
475.200000	27.038615	18.653697
475.300000	27.025837	18.665773
475.400000	27.013063	18.673131
475.500000	27.000294	18.680295
475.600000	26.987528	18.691795
475.700000	26.974769	18.712067
475.800000	26.962019	18.741203
475.900000	26.949278	18.773247
476.000000	26.936547	18.801810
476.100000	26.923829	18.825494
476.200000	26.911124	18.847822
476.300000	26.898433	18.868532
476.400000	26.885758	18.887358
476.500000	26.873100	18.904030
476.600000	26.860461	18.918247
476.700000	26.847841	18.930365
476.800000	26.835242	18.941093
476.900000	26.822665	18.951144
477.000000	26.810111	18.961231
477.100000	26.797582	18.972063
477.200000	26.785079	18.984354
477.300000	26.772603	18.998814
477.400000	26.760156	19.017118
477.500000	26.747738	19.041755
477.600000	26.735352	19.069332
477.700000	26.722997	19.095958
477.800000	26.710677	19.118932
477.900000	26.698391	19.141200
478.000000	26.686141	19.162648
478.100000	26.673928	19.182566
478.200000	26.661754	19.200245
478.300000	26.649620	19.215183
478.400000	26.637527	19.228166
478.500000	26.625477	19.239732
478.600000	26.613470	19.250319
478.700000	26.601508	19.260364
478.800000	26.589593	19.270303
478.900000	26.577725	19.280575
479.000000	26.565905	19.291614
479.100000	26.554136	19.303860
479.200000	26.542418	19.317109
479.300000	26.530753	19.329974
479.400000	26.519141	19.343336
479.500000	26.507585	19.358251
479.600000	26.496084	19.375780
479.700000	26.484621	19.396980
479.800000	26.473193	19.427590
479.900000	26.461799	19.479938
480.000000	26.450439	19.516700
480.100000	26.439112	19.536722
480.200000	26.427819	19.551331
480.300000	26.416559	19.563404
480.400000	26.405332	19.575821
480.500000	26.394138	19.591463
480.600000	26.382977	19.613272
480.700000	26.371849	19.654675
480.800000	26.360754	19.701482
480.900000	26.349690	19.729825
481.000000	26.338660	19.751970
481.100000	26.327661	19.770786
481.200000	26.316694	19.787510
481.300000	26.305759	19.803378
481.400000	26.294856	19.819420
481.500000	26.283984	19.834308
481.600000	26.273144	19.847996
481.700000	26.262335	19.861051
481.800000	26.251557	19.874048
481.900000	26.240810	19.887555
482.000000	26.230093	19.902143
482.100000	26.219407	19.918295
482.200000	26.208752	19.934359
482.300000	26.198127	19.950899
482.400000	26.187532	19.969797
482.500000	26.176967	19.992934
482.600000	26.166433	20.023465
482.700000	26.155927	20.084642
482.800000	26.145452	20.123703
482.900000	26.135005	20.142691
483.000000	26.124588	20.157434
483.100000	26.114200	20.169076
483.200000	26.103841	20.178760
483.300000	26.093511	20.187625
483.400000	26.083210	20.196819
483.500000	26.072937	20.207478
483.600000	26.062692	20.220645
483.700000	26.052476	20.233768
483.800000	26.042287	20.246369
483.900000	26.032127	20.259878
484.000000	26.021994	20.275727
484.100000	26.011889	20.295346
484.200000	26.001811	20.320227
484.300000	25.991782	20.375308
484.400000	25.981841	20.423590
484.500000	25.971986	20.446326
484.600000	25.962212	20.463548
484.700000	25.952515	20.477284
484.800000	25.942892	20.489567
484.900000	25.933339	20.502426
485.000000	25.923852	20.517891
485.100000	25.914427	20.536846
485.200000	25.905060	20.557572
485.300000	25.895747	20.579304
485.400000	25.886484	20.601324
485.500000	25.877268	20.622909
485.600000	25.868095	20.644135
485.700000	25.858960	20.665422
485.800000	25.849861	20.686693
485.900000	25.840792	20.707866
486.000000	25.831751	20.728931
486.100000	25.822732	20.750840
486.200000	25.813733	20.773059
486.300000	25.804750	20.794445
486.400000	25.795778	20.813857
486.500000	25.786814	20.830105
486.600000	25.777854	20.842400
486.700000	25.768894	20.851918
486.800000	25.759930	20.860131
486.900000	25.750958	20.868504
487.000000	25.741974	20.878509
487.100000	25.732975	20.891613
487.200000	25.723957	20.909285
487.300000	25.714915	20.939024
487.400000	25.705846	21.018703
487.500000	25.696746	21.044970
487.600000	25.687611	21.062249
487.700000	25.678437	21.074938
487.800000	25.669221	21.084688
487.900000	25.659958	21.093151
488.000000	25.650645	21.101977
488.100000	25.641277	21.112815
488.200000	25.631852	21.127318
488.300000	25.622364	21.147433
488.400000	25.612810	21.171861
488.500000	25.603186	21.197280
488.600000	25.593489	21.220366
488.700000	25.583714	21.238571
488.800000	25.573858	21.253809
488.900000	25.563917	21.267324
489.000000	25.553886	21.280067
489.100000	25.543762	21.292993
489.200000	25.533541	21.307054
489.300000	25.523220	21.323200
489.400000	25.512793	21.343338
489.500000	25.502258	21.369291
489.600000	25.491598	21.396830
489.700000	25.480784	21.421300
489.800000	25.469823	21.439063
489.900000	25.458722	21.453384
490.000000	25.447486	21.465703
490.100000	25.436124	21.476724
490.200000	25.424640	21.487152
490.300000	25.413042	21.497694
490.400000	25.401337	21.509055
490.500000	25.389532	21.521942
490.600000	25.377632	21.537091
490.700000	25.365644	21.555111
490.800000	25.353576	21.575244
490.900000	25.341433	21.596471
491.000000	25.329223	21.617776
491.100000	25.316952	21.638231
491.200000	25.304626	21.658780
491.300000	25.292253	21.679570
491.400000	25.279839	21.700083
491.500000	25.267390	21.719797
491.600000	25.254914	21.738178
491.700000	25.242416	21.754705
491.800000	25.229904	21.769933
491.900000	25.217385	21.784703
492.000000	25.204864	21.799853
492.100000	25.192348	21.816223
492.200000	25.179844	21.834653
492.300000	25.167360	21.857650
492.400000	25.154900	21.884609
492.500000	25.142473	21.911390
492.600000	25.130084	21.933853
492.700000	25.117740	21.950831
492.800000	25.105449	21.965646
492.900000	25.093216	21.978909
493.000000	25.081048	21.991187
493.100000	25.068952	22.003047
493.200000	25.056934	22.015056
493.300000	25.045002	22.027779
493.400000	25.033161	22.041685
493.500000	25.021419	22.055854
493.600000	25.009781	22.070105
493.700000	24.998255	22.084684
493.800000	24.986803	22.099837
493.900000	24.975402	22.115813
494.000000	24.964050	22.132857
494.100000	24.952744	22.151725
494.200000	24.941482	22.173292
494.300000	24.930263	22.196158
494.400000	24.919084	22.218799
494.500000	24.907943	22.239692
494.600000	24.896838	22.258890
494.700000	24.885768	22.277407
494.800000	24.874729	22.295306
494.900000	24.863720	22.312644
495.000000	24.852739	22.329485
495.100000	24.841785	22.345807
495.200000	24.830853	22.360848
495.300000	24.819944	22.374913
495.400000	24.809054	22.388654
495.500000	24.798182	22.402723
495.600000	24.787326	22.417774
495.700000	24.776482	22.434458
495.800000	24.765651	22.454079
495.900000	24.754828	22.478176
496.000000	24.744013	22.503975
496.100000	24.733204	22.528352
496.200000	24.722397	22.548442
496.300000	24.711592	22.565730
496.400000	24.700785	22.581549
496.500000	24.689976	22.596353
496.600000	24.679162	22.610595
496.700000	24.668340	22.624732
496.800000	24.657509	22.639217
496.900000	24.646667	22.653972
497.000000	24.635812	22.667972
497.100000	24.624942	22.681627
497.200000	24.614054	22.695440
497.300000	24.603146	22.709911
497.400000	24.592217	22.725543
497.500000	24.581265	22.742838
497.600000	24.570287	22.763754
497.700000	24.559281	22.788672
497.800000	24.548245	22.814409
497.900000	24.537178	22.837758
498.000000	24.526076	22.856435
498.100000	24.514939	22.872689
498.200000	24.503764	22.887460
498.300000	24.492574	22.901374
498.400000	24.481448	22.915063
498.500000	24.470388	22.929152
498.600000	24.459388	22.944271
498.700000	24.448441	22.960570
498.800000	24.437542	22.977415
498.900000	24.426685	22.994707
499.000000	24.415865	23.012363
499.100000	24.405074	23.030298
499.200000	24.394308	23.048429
499.300000	24.383560	23.067830
499.400000	24.372826	23.088560
499.500000	24.362098	23.109253
499.600000	24.351371	23.128541
499.700000	24.340639	23.145058
499.800000	24.329897	23.158252
499.900000	24.319138	23.169776
500.000000	24.308357	23.180050
500.100000	24.297547	23.189402
500.200000	24.286704	23.198160
500.300000	24.275821	23.206650
500.400000	24.264891	23.215201
500.500000	24.253911	23.224139
500.600000	24.242873	23.233791
500.700000	24.231771	23.244485
500.800000	24.220601	23.256428
500.900000	24.209355	23.269188
501.000000	24.198029	23.282718
501.100000	24.186616	23.297056
501.200000	24.175110	23.312241
501.300000	24.163506	23.328311
501.400000	24.151798	23.345304
501.500000	24.139979	23.364101
501.600000	24.128045	23.386340
501.700000	24.115989	23.409996
501.800000	24.103806	23.432805
501.900000	24.091489	23.452503
502.000000	24.079032	23.468999
502.100000	24.066431	23.483915
502.200000	24.053678	23.497756
502.300000	24.040768	23.511032
502.400000	24.027696	23.524250
502.500000	24.014456	23.537919
502.600000	24.001040	23.552546
502.700000	23.987454	23.567998
502.800000	23.973705	23.583746
502.900000	23.959792	23.599857
503.000000	23.945716	23.616400
503.100000	23.931475	23.633442
503.200000	23.917068	23.651054
503.300000	23.902495	23.669805
503.400000	23.887755	23.690121
503.500000	23.872846	23.711008
503.600000	23.857769	23.731437
503.700000	23.842522	23.750388
503.800000	23.827105	23.767282
503.900000	23.811517	23.782984
504.000000	23.795757	23.797862
504.100000	23.779823	23.812228
504.200000	23.763717	23.826397
504.300000	23.747435	23.840683
504.400000	23.730979	23.855399
504.500000	23.714347	23.870389
504.600000	23.697537	23.885254
504.700000	23.680550	23.900136
504.800000	23.663385	23.915184
504.900000	23.646041	23.930541
505.000000	23.628516	23.946354
505.100000	23.610811	23.962815
505.200000	23.592924	23.980479
505.300000	23.574855	23.998988
505.400000	23.556602	24.017720
505.500000	23.538166	24.036050
505.600000	23.519544	24.053356
505.700000	23.500737	24.069240
505.800000	23.481522	24.084188
505.900000	23.461674	24.098496
506.000000	23.441242	24.112426
506.100000	23.420277	24.126239
506.200000	23.398829	24.140197
506.300000	23.376948	24.154560
506.400000	23.354686	24.169487
506.500000	23.332092	24.184734
506.600000	23.309218	24.200191
506.700000	23.286113	24.215766
506.800000	23.262827	24.231373
506.900000	23.239412	24.246920
507.000000	23.215918	24.262320
507.100000	23.192394	24.277721
507.200000	23.168893	24.293191
507.300000	23.145463	24.308638
507.400000	23.122156	24.323970
507.500000	23.099021	24.339097
507.600000	23.076110	24.353925
507.700000	23.053472	24.368342
507.800000	23.031159	24.382200
507.900000	23.009220	24.395657
508.000000	22.987628	24.408917
508.100000	22.966066	24.422183
508.200000	22.944503	24.435658
508.300000	22.922947	24.449545
508.400000	22.901409	24.464048
508.500000	22.879900	24.479308
508.600000	22.858428	24.495182
508.700000	22.837004	24.511452
508.800000	22.815639	24.527904
508.900000	22.794341	24.544318
509.000000	22.773121	24.560479
509.100000	22.751989	24.576387
509.200000	22.730955	24.592357
509.300000	22.710028	24.608303
509.400000	22.689219	24.624129
509.500000	22.668538	24.639731
509.600000	22.647995	24.655015
509.700000	22.627599	24.669856
509.800000	22.607361	24.683984
509.900000	22.587290	24.697573
510.000000	22.567397	24.710916
510.100000	22.547691	24.724302
510.200000	22.528183	24.738024
510.300000	22.508882	24.752375
510.400000	22.489766	24.767650
510.500000	22.470676	24.784653
510.600000	22.451600	24.803119
510.700000	22.432548	24.822105
510.800000	22.413533	24.840664
510.900000	22.394567	24.857854
511.000000	22.375662	24.872808
511.100000	22.356829	24.885796
511.200000	22.338080	24.897455
511.300000	22.319427	24.908335
511.400000	22.300882	24.918989
511.500000	22.282457	24.929968
511.600000	22.264163	24.941823
511.700000	22.246012	24.955106
511.800000	22.228016	24.970416
511.900000	22.210187	24.990660
512.000000	22.192537	25.014798
512.100000	22.175078	25.039339
512.200000	22.157820	25.060792
512.300000	22.140777	25.076547
512.400000	22.123960	25.089792
512.500000	22.107381	25.101577
512.600000	22.091051	25.112248
512.700000	22.074983	25.122152
512.800000	22.059187	25.131638
512.900000	22.043677	25.141050
513.000000	22.028464	25.150738
513.100000	22.013559	25.161048
513.200000	21.998975	25.172312
513.300000	21.984594	25.184117
513.400000	21.970323	25.196143
513.500000	21.956163	25.208395
513.600000	21.942114	25.220875
513.700000	21.928177	25.233585
513.800000	21.914352	25.246530
513.900000	21.900639	25.259711
514.000000	21.887039	25.273136
514.100000	21.873553	25.287051
514.200000	21.860181	25.301473
514.300000	21.846924	25.316227
514.400000	21.833782	25.331138
514.500000	21.820755	25.346027
514.600000	21.807844	25.360720
514.700000	21.795050	25.375040
514.800000	21.782373	25.388848
514.900000	21.769813	25.402289
515.000000	21.757372	25.415576
515.100000	21.745049	25.428923
515.200000	21.732845	25.442544
515.300000	21.720760	25.456652
515.400000	21.708796	25.471463
515.500000	21.696952	25.487411
515.600000	21.685229	25.504611
515.700000	21.673627	25.522475
515.800000	21.662147	25.540407
515.900000	21.650790	25.557814
516.000000	21.639556	25.574099
516.100000	21.628445	25.589253
516.200000	21.617459	25.603811
516.300000	21.606596	25.617908
516.400000	21.595859	25.631677
516.500000	21.585247	25.645251
516.600000	21.574761	25.658767
516.700000	21.564401	25.672358
516.800000	21.554169	25.685969
516.900000	21.544063	25.699291
517.000000	21.534086	25.712438
517.100000	21.524237	25.725542
517.200000	21.514517	25.738739
517.300000	21.504926	25.752160
517.400000	21.495464	25.765937
517.500000	21.486117	25.780211
517.600000	21.476883	25.795155
517.700000	21.467757	25.810636
517.800000	21.458737	25.826427
517.900000	21.449821	25.842306
518.000000	21.441005	25.858047
518.100000	21.432289	25.873423
518.200000	21.423667	25.888310
518.300000	21.415139	25.902903
518.400000	21.406701	25.917299
518.500000	21.398350	25.931580
518.600000	21.390085	25.945831
518.700000	21.381901	25.960136
518.800000	21.373798	25.974580
518.900000	21.365771	25.989260
519.000000	21.357819	26.004197
519.100000	21.349938	26.019262
519.200000	21.342127	26.034323
519.300000	21.334381	26.049246
519.400000	21.326700	26.063897
519.500000	21.319079	26.078144
519.600000	21.311517	26.091882
519.700000	21.304010	26.105180
519.800000	21.296557	26.118177
519.900000	21.289154	26.131012
520.000000	21.281798	26.143820
520.100000	21.274488	26.156742
520.200000	21.267220	26.169914
520.300000	21.259992	26.183473
520.400000	21.252801	26.197415
520.500000	21.245644	26.211629
520.600000	21.238519	26.226030
520.700000	21.231423	26.240528
520.800000	21.224354	26.255036
520.900000	21.217308	26.269464
521.000000	21.210283	26.283727
521.100000	21.203277	26.297859
521.200000	21.196287	26.311931
521.300000	21.189310	26.325962
521.400000	21.182343	26.339970
521.500000	21.175384	26.353975
521.600000	21.168431	26.367996
521.700000	21.161479	26.382052
521.800000	21.154528	26.396180
521.900000	21.147574	26.410386
522.000000	21.140614	26.424624
522.100000	21.133646	26.438845
522.200000	21.126668	26.453005
522.300000	21.119675	26.467055
522.400000	21.112667	26.480952
522.500000	21.105640	26.494678
522.600000	21.098592	26.508291
522.700000	21.091519	26.521804
522.800000	21.084420	26.535225
522.900000	21.077291	26.548567
523.000000	21.070130	26.561840
523.100000	21.062934	26.575052
523.200000	21.055701	26.588208
523.300000	21.048428	26.601157
523.400000	21.041112	26.613908
523.500000	21.033751	26.626558
523.600000	21.026342	26.639204
523.700000	21.018882	26.651947
523.800000	21.011368	26.664884
523.900000	21.003799	26.678112
524.000000	20.996182	26.691736
524.100000	20.988580	26.705836
524.200000	20.981004	26.720299
524.300000	20.973452	26.734987
524.400000	20.965923	26.749761
524.500000	20.958415	26.764482
524.600000	20.950927	26.779012
524.700000	20.943458	26.793264
524.800000	20.936006	26.807587
524.900000	20.928570	26.821957
525.000000	20.921148	26.836247
525.100000	20.913740	26.850327
525.200000	20.906344	26.864064
525.300000	20.898959	26.877331
525.400000	20.891583	26.889991
525.500000	20.884215	26.901813
525.600000	20.876854	26.912881
525.700000	20.869498	26.923447
525.800000	20.862146	26.933761
525.900000	20.854797	26.944074
526.000000	20.847450	26.954636
526.100000	20.840102	26.965699
526.200000	20.832753	26.977514
526.300000	20.825402	26.990334
526.400000	20.818046	27.004932
526.500000	20.810685	27.021238
526.600000	20.803318	27.038455
526.700000	20.795943	27.055787
526.800000	20.788559	27.072440
526.900000	20.781164	27.087618
527.000000	20.773757	27.101022
527.100000	20.766336	27.113475
527.200000	20.758902	27.125228
527.300000	20.751451	27.136505
527.400000	20.743983	27.147530
527.500000	20.736497	27.158525
527.600000	20.728991	27.169713
527.700000	20.721463	27.181318
527.800000	20.713913	27.193560
527.900000	20.706339	27.206391
528.000000	20.698740	27.219620
528.100000	20.691114	27.233127
528.200000	20.683461	27.246791
528.300000	20.675778	27.260491
528.400000	20.668065	27.274107
528.500000	20.660320	27.287519
528.600000	20.652542	27.300714
528.700000	20.644729	27.314019
528.800000	20.636881	27.327370
528.900000	20.628995	27.340658
529.000000	20.621071	27.353771
529.100000	20.613107	27.366600
529.200000	20.605101	27.379035
529.300000	20.597054	27.390966
529.400000	20.588962	27.402290
529.500000	20.580826	27.413038
529.600000	20.572643	27.423343
529.700000	20.564412	27.433337
529.800000	20.556132	27.443151
529.900000	20.547801	27.452919
530.000000	20.539419	27.462772
530.100000	20.530984	27.472843
530.200000	20.522494	27.483267
530.300000	20.513948	27.494172
530.400000	20.505346	27.505663
530.500000	20.496685	27.517664
530.600000	20.487968	27.530033
530.700000	20.479197	27.542629
530.800000	20.470372	27.555313
530.900000	20.461494	27.567944
531.000000	20.452562	27.580382
531.100000	20.443579	27.592485
531.200000	20.434543	27.604151
531.300000	20.425457	27.615463
531.400000	20.416320	27.626528
531.500000	20.407132	27.637452
531.600000	20.397895	27.648337
531.700000	20.388609	27.659289
531.800000	20.379275	27.670412
531.900000	20.369893	27.681810
532.000000	20.360463	27.693588
532.100000	20.350987	27.705904
532.200000	20.341464	27.718858
532.300000	20.331895	27.732251
532.400000	20.322282	27.745871
532.500000	20.312624	27.759508
532.600000	20.302921	27.772951
532.700000	20.293176	27.785988
532.800000	20.283387	27.798410
532.900000	20.273556	27.810283
533.000000	20.263683	27.821828
533.100000	20.253768	27.833104
533.200000	20.243813	27.844169
533.300000	20.233818	27.855080
533.400000	20.223783	27.865893
533.500000	20.213709	27.876668
533.600000	20.203597	27.887461
533.700000	20.193446	27.898330
533.800000	20.183258	27.909200
533.900000	20.173033	27.919944
534.000000	20.162772	27.930602
534.100000	20.152475	27.941216
534.200000	20.142142	27.951829
534.300000	20.131775	27.962483
534.400000	20.121374	27.973220
534.500000	20.110939	27.984082
534.600000	20.100471	27.995111
534.700000	20.089971	28.006346
534.800000	20.079439	28.017779
534.900000	20.068875	28.029371
535.000000	20.058280	28.041088
535.100000	20.047655	28.052892
535.200000	20.037001	28.064744
535.300000	20.026317	28.076607
535.400000	20.015604	28.088446
535.500000	20.004864	28.100220
535.600000	19.994080	28.112095
535.700000	19.983181	28.124249
535.800000	19.972160	28.136543
535.900000	19.961025	28.148834
536.000000	19.949779	28.160981
536.100000	19.938430	28.172844
536.200000	19.926982	28.184280
536.300000	19.915442	28.195148
536.400000	19.903815	28.205308
536.500000	19.892107	28.214737
536.600000	19.880323	28.223561
536.700000	19.868469	28.231922
536.800000	19.856551	28.239957
536.900000	19.844574	28.247807
537.000000	19.832544	28.255608
537.100000	19.820468	28.263502
537.200000	19.808349	28.271628
537.300000	19.796195	28.280125
537.400000	19.784010	28.289131
537.500000	19.771802	28.298786
537.600000	19.759574	28.309284
537.700000	19.747333	28.320883
537.800000	19.735084	28.333365
537.900000	19.722834	28.346462
538.000000	19.710587	28.359906
538.100000	19.698351	28.373429
538.200000	19.686129	28.386763
538.300000	19.673928	28.399640
538.400000	19.661753	28.411948
538.500000	19.649611	28.424144
538.600000	19.637507	28.436262
538.700000	19.625446	28.448279
538.800000	19.613435	28.460174
538.900000	19.601478	28.471922
539.000000	19.589582	28.483502
539.100000	19.577752	28.494892
539.200000	19.565995	28.506067
539.300000	19.554314	28.516949
539.400000	19.542717	28.527533
539.500000	19.531209	28.537893
539.600000	19.519796	28.548101
539.700000	19.508483	28.558229
539.800000	19.497273	28.568351
539.900000	19.486109	28.578537
540.000000	19.474967	28.588864
540.100000	19.463846	28.599401
540.200000	19.452747	28.610216
540.300000	19.441670	28.621271
540.400000	19.430616	28.632509
540.500000	19.419584	28.643886
540.600000	19.408576	28.655360
540.700000	19.397590	28.666889
540.800000	19.386628	28.678429
540.900000	19.375689	28.689938
541.000000	19.364775	28.701373
541.100000	19.353884	28.712706
541.200000	19.343019	28.724018
541.300000	19.332178	28.735323
541.400000	19.321362	28.746619
541.500000	19.310571	28.757898
541.600000	19.299806	28.769157
541.700000	19.289067	28.780389
541.800000	19.278354	28.791592
541.900000	19.267667	28.802760
542.000000	19.257007	28.813881
542.100000	19.246373	28.824925
542.200000	19.235767	28.835906
542.300000	19.225189	28.846846
542.400000	19.214638	28.857767
542.500000	19.204115	28.868694
542.600000	19.193620	28.879648
542.700000	19.183153	28.890653
542.800000	19.172716	28.901730
542.900000	19.162307	28.912900
543.000000	19.151928	28.924125
543.100000	19.141578	28.935389
543.200000	19.131258	28.946698
543.300000	19.120968	28.958052
543.400000	19.110709	28.969455
543.500000	19.100480	28.980911
543.600000	19.090281	28.992424
543.700000	19.080114	29.003996
543.800000	19.069979	29.015638
543.900000	19.059875	29.027408
544.000000	19.049803	29.039287
544.100000	19.039763	29.051242
544.200000	19.029756	29.063233
544.300000	19.019781	29.075229
544.400000	19.009839	29.087191
544.500000	18.999931	29.099086
544.600000	18.990023	29.110878
544.700000	18.980087	29.122610
544.800000	18.970124	29.134363
544.900000	18.960139	29.146107
545.000000	18.950134	29.157812
545.100000	18.940113	29.169447
545.200000	18.930078	29.180982
545.300000	18.920033	29.192386
545.400000	18.909981	29.203628
545.500000	18.899924	29.214678
545.600000	18.889866	29.225510
545.700000	18.879810	29.236149
545.800000	18.869759	29.246637
545.900000	18.859716	29.257013
546.000000	18.849685	29.267317
546.100000	18.839667	29.277589
546.200000	18.829667	29.287869
546.300000	18.819687	29.298198
546.400000	18.809731	29.308615
546.500000	18.799801	29.319144
546.600000	18.789901	29.329697
546.700000	18.780034	29.340263
546.800000	18.770202	29.350845
546.900000	18.760410	29.361451
547.000000	18.750659	29.372083
547.100000	18.740953	29.382749
547.200000	18.731296	29.393453
547.300000	18.721689	29.404200
547.400000	18.712137	29.414996
547.500000	18.702643	29.425875
547.600000	18.693209	29.436851
547.700000	18.683838	29.447897
547.800000	18.674534	29.458983
547.900000	18.665300	29.470085
548.000000	18.656138	29.481172
548.100000	18.647052	29.492217
548.200000	18.638046	29.503194
548.300000	18.629121	29.514075
548.400000	18.620281	29.524863
548.500000	18.611530	29.535611
548.600000	18.602870	29.546319
548.700000	18.594304	29.556985
548.800000	18.585835	29.567607
548.900000	18.577467	29.578185
549.000000	18.569203	29.588716
549.100000	18.561045	29.599201
549.200000	18.552997	29.609636
549.300000	18.545062	29.620024
549.400000	18.537243	29.630414
549.500000	18.529543	29.640808
549.600000	18.521964	29.651182
549.700000	18.514511	29.661514
549.800000	18.507186	29.671782
549.900000	18.499993	29.681959
550.000000	18.492897	29.692026
550.100000	18.485862	29.701958
550.200000	18.478887	29.711731
550.300000	18.471972	29.721316
550.400000	18.465115	29.730599
550.500000	18.458315	29.739608
550.600000	18.451572	29.748414
550.700000	18.444884	29.757089
550.800000	18.438251	29.765708
550.900000	18.431672	29.774344
551.000000	18.425145	29.783067
551.100000	18.418670	29.791952
551.200000	18.412246	29.801070
551.300000	18.405871	29.810496
551.400000	18.399546	29.820300
551.500000	18.393268	29.830520
551.600000	18.387038	29.841108
551.700000	18.380854	29.852000
551.800000	18.374714	29.863136
551.900000	18.368619	29.874452
552.000000	18.362568	29.885886
552.100000	18.356558	29.897378
552.200000	18.350590	29.908864
552.300000	18.344662	29.920284
552.400000	18.338774	29.931815
552.500000	18.332925	29.943621
552.600000	18.327113	29.955594
552.700000	18.321338	29.967618
552.800000	18.315598	29.979584
552.900000	18.309893	29.991380
553.000000	18.304222	30.002894
553.100000	18.298584	30.014013
553.200000	18.292978	30.024633
553.300000	18.287403	30.034769
553.400000	18.281858	30.044520
553.500000	18.276343	30.053974
553.600000	18.270855	30.063220
553.700000	18.265395	30.072346
553.800000	18.259961	30.081441
553.900000	18.254552	30.090593
554.000000	18.249168	30.099891
554.100000	18.243807	30.109423
554.200000	18.238469	30.119277
554.300000	18.233152	30.129499
554.400000	18.227856	30.139984
554.500000	18.222580	30.150685
554.600000	18.217323	30.161561
554.700000	18.212083	30.172575
554.800000	18.206860	30.183686
554.900000	18.201654	30.194856
555.000000	18.196462	30.206046
555.100000	18.191284	30.217216
555.200000	18.186120	30.228359
555.300000	18.180967	30.239703
555.400000	18.175826	30.251224
555.500000	18.170695	30.262837
555.600000	18.165574	30.274452
555.700000	18.160461	30.285984
555.800000	18.155355	30.297344
555.900000	18.150256	30.308445
556.000000	18.145163	30.319199
556.100000	18.140074	30.329529
556.200000	18.134989	30.339467
556.300000	18.129906	30.349091
556.400000	18.124826	30.358472
556.500000	18.119746	30.367684
556.600000	18.114667	30.376797
556.700000	18.109586	30.385884
556.800000	18.104503	30.395017
556.900000	18.099418	30.404270
557.000000	18.094328	30.413714
557.100000	18.089234	30.423422
557.200000	18.084134	30.433438
557.300000	18.079028	30.443711
557.400000	18.073914	30.454180
557.500000	18.068791	30.464788
557.600000	18.063659	30.475479
557.700000	18.058517	30.486195
557.800000	18.053363	30.496880
557.900000	18.048197	30.507476
558.000000	18.043017	30.517926
558.100000	18.037824	30.528175
558.200000	18.032615	30.538238
558.300000	18.027390	30.548168
558.400000	18.022148	30.557996
558.500000	18.016888	30.567753
558.600000	18.011610	30.577469
558.700000	18.006311	30.587174
558.800000	18.000992	30.596900
558.900000	17.995666	30.606675
559.000000	17.990361	30.616531
559.100000	17.985078	30.626497
559.200000	17.979817	30.636606
559.300000	17.974576	30.646847
559.400000	17.969356	30.657185
559.500000	17.964155	30.667583
559.600000	17.958973	30.678006
559.700000	17.953810	30.688415
559.800000	17.948665	30.698775
559.900000	17.943538	30.709051
560.000000	17.938428	30.719205
560.100000	17.933334	30.729201
560.200000	17.928256	30.739016
560.300000	17.923193	30.748675
560.400000	17.918145	30.758213
560.500000	17.913112	30.767668
560.600000	17.908092	30.777075
560.700000	17.903086	30.786469
560.800000	17.898092	30.795885
560.900000	17.893110	30.805361
561.000000	17.888141	30.814930
561.100000	17.883182	30.824628
561.200000	17.878233	30.834483
561.300000	17.873295	30.844445
561.400000	17.868366	30.854491
561.500000	17.863446	30.864611
561.600000	17.858535	30.874796
561.700000	17.853631	30.885038
561.800000	17.848735	30.895324
561.900000	17.843846	30.905647
562.000000	17.838962	30.915998
562.100000	17.834085	30.926365
562.200000	17.829212	30.936754
562.300000	17.824345	30.947223
562.400000	17.819481	30.957763
562.500000	17.814621	30.968353
562.600000	17.809764	30.978973
562.700000	17.804910	30.989602
562.800000	17.800057	31.000220
562.900000	17.795206	31.010806
563.000000	17.790355	31.021339
563.100000	17.785506	31.031798
563.200000	17.780655	31.042213
563.300000	17.775804	31.052624
563.400000	17.770952	31.063022
563.500000	17.766098	31.073396
563.600000	17.761242	31.083734
563.700000	17.756383	31.094028
563.800000	17.751520	31.104264
563.900000	17.746654	31.114434
564.000000	17.741782	31.124526
564.100000	17.736906	31.134529
564.200000	17.732025	31.144417
564.300000	17.727137	31.154195
564.400000	17.722242	31.163884
564.500000	17.717341	31.173509
564.600000	17.712431	31.183092
564.700000	17.707514	31.192655
564.800000	17.702587	31.202222
564.900000	17.697651	31.211817
565.000000	17.692706	31.221460
565.100000	17.687750	31.231175
565.200000	17.682783	31.240978
565.300000	17.677804	31.250843
565.400000	17.672814	31.260756
565.500000	17.667811	31.270703
565.600000	17.662794	31.280670
565.700000	17.657765	31.290645
565.800000	17.652721	31.300611
565.900000	17.647662	31.310556
566.000000	17.642588	31.320466
566.100000	17.637498	31.330327
566.200000	17.632392	31.340126
566.300000	17.627269	31.349862
566.400000	17.622129	31.359551
566.500000	17.616971	31.369203
566.600000	17.611794	31.378834
566.700000	17.606598	31.388455
566.800000	17.601383	31.398082
566.900000	17.596148	31.407726
567.000000	17.590892	31.417401
567.100000	17.585614	31.427122
567.200000	17.580316	31.436900
567.300000	17.574994	31.446755
567.400000	17.569651	31.456680
567.500000	17.564283	31.466658
567.600000	17.558892	31.476666
567.700000	17.553477	31.486688
567.800000	17.548037	31.496704
567.900000	17.542571	31.506695
568.000000	17.537079	31.516640
568.100000	17.531561	31.526521
568.200000	17.526015	31.536319
568.300000	17.520442	31.546017
568.400000	17.514841	31.555625
568.500000	17.509211	31.565161
568.600000	17.503552	31.574648
568.700000	17.497865	31.584104
568.800000	17.492169	31.593549
568.900000	17.486470	31.603004
569.000000	17.480766	31.612491
569.100000	17.475056	31.622026
569.200000	17.469341	31.631633
569.300000	17.463620	31.641335
569.400000	17.457892	31.651212
569.500000	17.452156	31.661243
569.600000	17.446412	31.671374
569.700000	17.440660	31.681548
569.800000	17.434898	31.691710
569.900000	17.429127	31.701803
570.000000	17.423345	31.711772
570.100000	17.417552	31.721559
570.200000	17.411747	31.731109
570.300000	17.405931	31.740368
570.400000	17.400101	31.749281
570.500000	17.394259	31.757884
570.600000	17.388402	31.766242
570.700000	17.382531	31.774422
570.800000	17.376645	31.782488
570.900000	17.370743	31.790508
571.000000	17.364825	31.798546
571.100000	17.358890	31.806668
571.200000	17.352938	31.814941
571.300000	17.346968	31.823430
571.400000	17.340979	31.832200
571.500000	17.334971	31.841320
571.600000	17.328943	31.850906
571.700000	17.322895	31.860943
571.800000	17.316826	31.871320
571.900000	17.310735	31.881925
572.000000	17.304623	31.892647
572.100000	17.298487	31.903376
572.200000	17.292329	31.914002
572.300000	17.286146	31.924410
572.400000	17.279940	31.934492
572.500000	17.273708	31.944143
572.600000	17.267450	31.953478
572.700000	17.261167	31.962594
572.800000	17.254856	31.971530
572.900000	17.248519	31.980323
573.000000	17.242153	31.989007
573.100000	17.235759	31.997622
573.200000	17.229336	32.006204
573.300000	17.222883	32.014789
573.400000	17.216400	32.023413
573.500000	17.209886	32.032115
573.600000	17.203340	32.040931
573.700000	17.196763	32.049835
573.800000	17.190153	32.058717
573.900000	17.183510	32.067587
574.000000	17.176833	32.076460
574.100000	17.170122	32.085353
574.200000	17.163375	32.094282
574.300000	17.156593	32.103261
574.400000	17.149776	32.112307
574.500000	17.142921	32.121436
574.600000	17.136029	32.130662
574.700000	17.129100	32.140004
574.800000	17.122131	32.149489
574.900000	17.115124	32.159176
575.000000	17.108078	32.169029
575.100000	17.100991	32.179007
575.200000	17.093863	32.189069
575.300000	17.086694	32.199173
575.400000	17.079483	32.209275
575.500000	17.072229	32.219334
575.600000	17.064933	32.229309
575.700000	17.057592	32.239155
575.800000	17.050208	32.248846
575.900000	17.042778	32.258487
576.000000	17.035303	32.268100
576.100000	17.027782	32.277676
576.200000	17.020214	32.287206
576.300000	17.012600	32.296682
576.400000	17.004937	32.306093
576.500000	16.997223	32.315431
576.600000	16.989424	32.324688
576.700000	16.981531	32.333853
576.800000	16.973547	32.342918
576.900000	16.965474	32.351859
577.000000	16.957312	32.360627
577.100000	16.949065	32.369251
577.200000	16.940733	32.377765
577.300000	16.932319	32.386201
577.400000	16.923824	32.394590
577.500000	16.915251	32.402969
577.600000	16.906600	32.411369
577.700000	16.897874	32.419825
577.800000	16.889075	32.428367
577.900000	16.880204	32.437032
578.000000	16.871264	32.445850
578.100000	16.862255	32.454846
578.200000	16.853181	32.463998
578.300000	16.844041	32.473275
578.400000	16.834840	32.482647
578.500000	16.825577	32.492083
578.600000	16.816256	32.501552
578.700000	16.806877	32.511026
578.800000	16.797443	32.520469
578.900000	16.787956	32.529856
579.000000	16.778417	32.539152
579.100000	16.768828	32.548329
579.200000	16.759190	32.557430
579.300000	16.749507	32.566515
579.400000	16.739779	32.575576
579.500000	16.730008	32.584605
579.600000	16.720196	32.593596
579.700000	16.710345	32.602543
579.800000	16.700457	32.611436
579.900000	16.690534	32.620270
580.000000	16.680576	32.629039
580.100000	16.670587	32.637733
580.200000	16.660568	32.646347
580.300000	16.650520	32.654851
580.400000	16.640446	32.663185
580.500000	16.630348	32.671379
580.600000	16.620226	32.679465
580.700000	16.610083	32.687479
580.800000	16.599922	32.695459
580.900000	16.589742	32.703436
581.000000	16.579547	32.711448
581.100000	16.569339	32.719530
581.200000	16.559118	32.727716
581.300000	16.548887	32.736043
581.400000	16.538647	32.744545
581.500000	16.528401	32.753263
581.600000	16.518150	32.762279
581.700000	16.507896	32.771558
581.800000	16.497639	32.781032
581.900000	16.487310	32.790636
582.000000	16.476883	32.800304
582.100000	16.466362	32.809970
582.200000	16.455752	32.819565
582.300000	16.445056	32.829024
582.400000	16.434279	32.838282
582.500000	16.423424	32.847270
582.600000	16.412495	32.855936
582.700000	16.401497	32.864332
582.800000	16.390434	32.872510
582.900000	16.379309	32.880515
583.000000	16.368127	32.888390
583.100000	16.356892	32.896182
583.200000	16.345608	32.903931
583.300000	16.334278	32.911687
583.400000	16.322908	32.919492
583.500000	16.311500	32.927389
583.600000	16.300060	32.935425
583.700000	16.288590	32.943644
583.800000	16.277096	32.952090
583.900000	16.265581	32.960802
584.000000	16.254049	32.969760
584.100000	16.242505	32.978913
584.200000	16.230952	32.988210
584.300000	16.219394	32.997602
584.400000	16.207836	33.007040
584.500000	16.196281	33.016473
584.600000	16.184734	33.025851
584.700000	16.173198	33.035124
584.800000	16.161678	33.044242
584.900000	16.150178	33.053156
585.000000	16.138702	33.061833
585.100000	16.127254	33.070305
585.200000	16.115837	33.078617
585.300000	16.104457	33.086817
585.400000	16.093116	33.094950
585.500000	16.081819	33.103063
585.600000	16.070571	33.111202
585.700000	16.059375	33.119414
585.800000	16.048235	33.127743
585.900000	16.037155	33.136237
586.000000	16.026140	33.144943
586.100000	16.015192	33.153907
586.200000	16.004318	33.163276
586.300000	15.993513	33.173126
586.400000	15.982752	33.183330
586.500000	15.972030	33.193757
586.600000	15.961345	33.204276
586.700000	15.950697	33.214758
586.800000	15.940083	33.225071
586.900000	15.929502	33.235085
587.000000	15.918952	33.244671
587.100000	15.908431	33.253698
587.200000	15.897938	33.262092
587.300000	15.887471	33.269976
587.400000	15.877029	33.277438
587.500000	15.866610	33.284571
587.600000	15.856212	33.291462
587.700000	15.845834	33.298202
587.800000	15.835474	33.304878
587.900000	15.825130	33.311583
588.000000	15.814801	33.318403
588.100000	15.804485	33.325429
588.200000	15.794181	33.332751
588.300000	15.783886	33.340456
588.400000	15.773600	33.348636
588.500000	15.763321	33.357380
588.600000	15.753046	33.367158
588.700000	15.742775	33.378062
588.800000	15.732506	33.389758
588.900000	15.722237	33.401916
589.000000	15.711966	33.414204
589.100000	15.701692	33.426289
589.200000	15.691413	33.437841
589.300000	15.681128	33.448527
589.400000	15.670835	33.458018
589.500000	15.660532	33.466557
589.600000	15.650218	33.474619
589.700000	15.639891	33.482268
589.800000	15.629550	33.489565
589.900000	15.619192	33.496572
590.000000	15.608817	33.503352
590.100000	15.598422	33.509967
590.200000	15.588006	33.516477
590.300000	15.577567	33.522947
590.400000	15.567104	33.529437
590.500000	15.556615	33.536010
590.600000	15.546098	33.542729
590.700000	15.535552	33.549655
590.800000	15.524975	33.556850
590.900000	15.514366	33.564294
591.000000	15.503723	33.571797
591.100000	15.493043	33.579350
591.200000	15.482327	33.586959
591.300000	15.471575	33.594628
591.400000	15.460789	33.602363
591.500000	15.449972	33.610167
591.600000	15.439124	33.618047
591.700000	15.428249	33.626004
591.800000	15.417346	33.634046
591.900000	15.406419	33.642177
592.000000	15.395469	33.650401
592.100000	15.384498	33.658721
592.200000	15.373508	33.667211
592.300000	15.362500	33.675955
592.400000	15.351476	33.684901
592.500000	15.340438	33.693999
592.600000	15.329388	33.703197
592.700000	15.318328	33.712441
592.800000	15.307259	33.721680
592.900000	15.296184	33.730861
593.000000	15.285103	33.739932
593.100000	15.274019	33.748839
593.200000	15.262934	33.757532
593.300000	15.251849	33.765966
593.400000	15.240766	33.774168
593.500000	15.229687	33.782183
593.600000	15.218614	33.790053
593.700000	15.207549	33.797819
593.800000	15.196493	33.805525
593.900000	15.185448	33.813212
594.000000	15.174416	33.820922
594.100000	15.163398	33.828699
594.200000	15.152397	33.836583
594.300000	15.141414	33.844617
594.400000	15.130452	33.852844
594.500000	15.119511	33.861305
594.600000	15.108594	33.870087
594.700000	15.097703	33.879220
594.800000	15.086838	33.888625
594.900000	15.076003	33.898219
595.000000	15.065198	33.907924
595.100000	15.054427	33.917658
595.200000	15.043689	33.927339
595.300000	15.032988	33.936887
595.400000	15.022325	33.946223
595.500000	15.011701	33.955263
595.600000	15.001119	33.963929
595.700000	14.990569	33.972240
595.800000	14.980032	33.980283
595.900000	14.969509	33.988105
596.000000	14.959000	33.995751
596.100000	14.948505	34.003269
596.200000	14.938023	34.010707
596.300000	14.927556	34.018111
596.400000	14.917103	34.025529
596.500000	14.906664	34.033006
596.600000	14.896239	34.040591
596.700000	14.885828	34.048329
596.800000	14.875432	34.056270
596.900000	14.865049	34.064459
597.000000	14.854682	34.072960
597.100000	14.844328	34.081758
597.200000	14.833989	34.090786
597.300000	14.823664	34.099977
597.400000	14.813354	34.109266
597.500000	14.803058	34.118585
597.600000	14.792777	34.127868
597.700000	14.782511	34.137048
597.800000	14.772259	34.146058
597.900000	14.762022	34.154834
598.000000	14.751800	34.163305
598.100000	14.741592	34.171461
598.200000	14.731400	34.179406
598.300000	14.721222	34.187174
598.400000	14.711059	34.194792
598.500000	14.700912	34.202288
598.600000	14.690779	34.209693
598.700000	14.680661	34.217031
598.800000	14.670559	34.224331
598.900000	14.660472	34.231623
599.000000	14.650400	34.238934
599.100000	14.640343	34.246290
599.200000	14.630302	34.253721
599.300000	14.620276	34.261254
599.400000	14.610265	34.268914
599.500000	14.600270	34.276663
599.600000	14.590290	34.284474
599.700000	14.580326	34.292335
599.800000	14.570378	34.300233
599.900000	14.560445	34.308157
600.000000	14.550528	34.316094
600.100000	14.540627	34.324032
600.200000	14.530741	34.331959
600.300000	14.520871	34.339862
600.400000	14.511017	34.347730
600.500000	14.501179	34.355551
600.600000	14.491370	34.363311
600.700000	14.481607	34.371001
600.800000	14.471889	34.378635
600.900000	14.462214	34.386221
601.000000	14.452580	34.393767
601.100000	14.442985	34.401280
601.200000	14.433427	34.408769
601.300000	14.423904	34.416241
601.400000	14.414414	34.423704
601.500000	14.404954	34.431164
601.600000	14.395524	34.438630
601.700000	14.386121	34.446109
601.800000	14.376742	34.453608
601.900000	14.367386	34.461137
602.000000	14.358051	34.468700
602.100000	14.348736	34.476256
602.200000	14.339437	34.483774
602.300000	14.330152	34.491265
602.400000	14.320881	34.498746
602.500000	14.311621	34.506231
602.600000	14.302369	34.513734
602.700000	14.293125	34.521271
602.800000	14.283885	34.528855
602.900000	14.274648	34.536502
603.000000	14.265412	34.544226
603.100000	14.256175	34.552042
603.200000	14.246935	34.559964
603.300000	14.237689	34.568008
603.400000	14.228437	34.576237
603.500000	14.219175	34.584732
603.600000	14.209902	34.593438
603.700000	14.200616	34.602297
603.800000	14.191314	34.611253
603.900000	14.181996	34.620247
604.000000	14.172658	34.629223
604.100000	14.163299	34.638122
604.200000	14.153917	34.646889
604.300000	14.144510	34.655463
604.400000	14.135076	34.663789
604.500000	14.125612	34.671811
604.600000	14.116117	34.679540
604.700000	14.106589	34.687033
604.800000	14.097026	34.694329
604.900000	14.087425	34.701468
605.000000	14.077786	34.708489
605.100000	14.068105	34.715433
605.200000	14.058380	34.722337
605.300000	14.048611	34.729241
605.400000	14.038794	34.736184
605.500000	14.028928	34.743206
605.600000	14.019011	34.750348
605.700000	14.009041	34.757646
605.800000	13.999015	34.765142
605.900000	13.988885	34.772874
606.000000	13.978626	34.780905
606.100000	13.968244	34.789212
606.200000	13.957746	34.797738
606.300000	13.947139	34.806425
606.400000	13.936431	34.815215
606.500000	13.925629	34.824051
606.600000	13.914739	34.832873
606.700000	13.903769	34.841625
606.800000	13.892726	34.850248
606.900000	13.881617	34.858686
607.000000	13.870449	34.866878
607.100000	13.859230	34.874773
607.200000	13.847966	34.882415
607.300000	13.836665	34.889863
607.400000	13.825333	34.897147
607.500000	13.813978	34.904298
607.600000	13.802608	34.911347
607.700000	13.791228	34.918327
607.800000	13.779846	34.925267
607.900000	13.768470	34.932200
608.000000	13.757106	34.939157
608.100000	13.745762	34.946168
608.200000	13.734444	34.953266
608.300000	13.723160	34.960481
608.400000	13.711918	34.967846
608.500000	13.700723	34.975392
608.600000	13.689583	34.983180
608.700000	13.678506	34.991194
608.800000	13.667498	34.999380
608.900000	13.656566	35.007689
609.000000	13.645719	35.016068
609.100000	13.634962	35.024465
609.200000	13.624303	35.032831
609.300000	13.613749	35.041110
609.400000	13.603307	35.049254
609.500000	13.592984	35.057211
609.600000	13.582788	35.064929
609.700000	13.572725	35.072357
609.800000	13.562803	35.079456
609.900000	13.553029	35.086269
610.000000	13.543410	35.092838
610.100000	13.533953	35.099203
610.200000	13.524664	35.105405
610.300000	13.515552	35.111481
610.400000	13.506624	35.117474
610.500000	13.497882	35.123422
610.600000	13.489245	35.129366
610.700000	13.480675	35.135345
610.800000	13.472172	35.141400
610.900000	13.463734	35.147569
611.000000	13.455360	35.153894
611.100000	13.447050	35.160414
611.200000	13.438802	35.167168
611.300000	13.430615	35.174198
611.400000	13.422488	35.181552
611.500000	13.414420	35.189257
611.600000	13.406410	35.197260
611.700000	13.398456	35.205510
611.800000	13.390558	35.213952
611.900000	13.382714	35.222535
612.000000	13.374924	35.231208
612.100000	13.367186	35.239916
612.200000	13.359500	35.248608
612.300000	13.351863	35.257230
612.400000	13.344276	35.265731
612.500000	13.336736	35.274058
612.600000	13.329244	35.282201
612.700000	13.321797	35.290296
612.800000	13.314395	35.298357
612.900000	13.307036	35.306384
613.000000	13.299720	35.314379
613.100000	13.292445	35.322344
613.200000	13.285210	35.330279
613.300000	13.278015	35.338185
613.400000	13.270858	35.346063
613.500000	13.263737	35.353915
613.600000	13.256653	35.361742
613.700000	13.249603	35.369543
613.800000	13.242587	35.377321
613.900000	13.235604	35.385073
614.000000	13.228652	35.392795
614.100000	13.221731	35.400488
614.200000	13.214839	35.408153
614.300000	13.207975	35.415792
614.400000	13.201139	35.423407
614.500000	13.194328	35.431000
614.600000	13.187542	35.438571
614.700000	13.180781	35.446124
614.800000	13.174042	35.453660
614.900000	13.167324	35.461178
615.000000	13.160628	35.468683
615.100000	13.153950	35.476175
615.200000	13.147292	35.483652
615.300000	13.140650	35.491102
615.400000	13.134025	35.498527
615.500000	13.127414	35.505928
615.600000	13.120818	35.513310
615.700000	13.114235	35.520676
615.800000	13.107663	35.528028
615.900000	13.101103	35.535368
616.000000	13.094552	35.542702
616.100000	13.088009	35.550030
616.200000	13.081474	35.557357
616.300000	13.074945	35.564684
616.400000	13.068422	35.572017
616.500000	13.061902	35.579356
616.600000	13.055386	35.586718
616.700000	13.048872	35.594117
616.800000	13.042358	35.601543
616.900000	13.035845	35.608985
617.000000	13.029330	35.616431
617.100000	13.022813	35.623871
617.200000	13.016292	35.631296
617.300000	13.009766	35.638691
617.400000	13.003235	35.646049
617.500000	12.996702	35.653356
617.600000	12.990193	35.660603
617.700000	12.983711	35.667778
617.800000	12.977257	35.674871
617.900000	12.970830	35.681871
618.000000	12.964429	35.688741
618.100000	12.958053	35.695475
618.200000	12.951703	35.702094
618.300000	12.945377	35.708623
618.400000	12.939075	35.715084
618.500000	12.932797	35.721499
618.600000	12.926541	35.727892
618.700000	12.920308	35.734285
618.800000	12.914097	35.740701
618.900000	12.907907	35.747163
619.000000	12.901737	35.753693
619.100000	12.895588	35.760314
619.200000	12.889459	35.767050
619.300000	12.883348	35.773922
619.400000	12.877256	35.780954
619.500000	12.871182	35.788199
619.600000	12.865126	35.795706
619.700000	12.859086	35.803431
619.800000	12.853062	35.811322
619.900000	12.847055	35.819334
620.000000	12.841063	35.827415
620.100000	12.835085	35.835520
620.200000	12.829121	35.843598
620.300000	12.823171	35.851602
620.400000	12.817235	35.859481
620.500000	12.811310	35.867190
620.600000	12.805398	35.874678
620.700000	12.799497	35.881897
620.800000	12.793606	35.888827
620.900000	12.787726	35.895528
621.000000	12.781856	35.902032
621.100000	12.775995	35.908372
621.200000	12.770143	35.914578
621.300000	12.764299	35.920685
621.400000	12.758462	35.926721
621.500000	12.752632	35.932718
621.600000	12.746809	35.938709
621.700000	12.740992	35.944727
621.800000	12.735180	35.950800
621.900000	12.729373	35.956962
622.000000	12.723570	35.963246
622.100000	12.717771	35.969680
622.200000	12.711975	35.976298
622.300000	12.706182	35.983131
622.400000	12.700390	35.990215
622.500000	12.694601	35.997554
622.600000	12.688812	36.005111
622.700000	12.683024	36.012846
622.800000	12.677235	36.020721
622.900000	12.671446	36.028698
623.000000	12.665656	36.036739
623.100000	12.659864	36.044806
623.200000	12.654069	36.052858
623.300000	12.648272	36.060859
623.400000	12.642471	36.068770
623.500000	12.636666	36.076551
623.600000	12.630857	36.084166
623.700000	12.625043	36.091625
623.800000	12.619223	36.099012
623.900000	12.613397	36.106340
624.000000	12.607565	36.113612
624.100000	12.601725	36.120838
624.200000	12.595877	36.128023
624.300000	12.590021	36.135175
624.400000	12.584156	36.142303
624.500000	12.578282	36.149410
624.600000	12.572397	36.156506
624.700000	12.566502	36.163596
624.800000	12.560596	36.170689
624.900000	12.554679	36.177790
625.000000	12.548749	36.184907
625.100000	12.542806	36.192017
625.200000	12.536850	36.199056
625.300000	12.530881	36.206036
625.400000	12.524897	36.212977
625.500000	12.518898	36.219892
625.600000	12.512883	36.226799
625.700000	12.506853	36.233714
625.800000	12.500806	36.240655
625.900000	12.494746	36.247637
626.000000	12.488679	36.254678
626.100000	12.482607	36.261793
626.200000	12.476529	36.269002
626.300000	12.470445	36.276317
626.400000	12.464356	36.283758
626.500000	12.458262	36.291357
626.600000	12.452162	36.299225
626.700000	12.446057	36.307333
626.800000	12.439948	36.315624
626.900000	12.433833	36.324042
627.000000	12.427714	36.332533
627.100000	12.421591	36.341038
627.200000	12.415463	36.349503
627.300000	12.409332	36.357872
627.400000	12.403196	36.366088
627.500000	12.397057	36.374095
627.600000	12.390914	36.381838
627.700000	12.384767	36.389261
627.800000	12.378618	36.396420
627.900000	12.372465	36.403400
628.000000	12.366309	36.410223
628.100000	12.360150	36.416906
628.200000	12.353989	36.423470
628.300000	12.347825	36.429934
628.400000	12.341659	36.436319
628.500000	12.335491	36.442642
628.600000	12.329320	36.448924
628.700000	12.323148	36.455185
628.800000	12.316974	36.461444
628.900000	12.310798	36.467722
629.000000	12.304621	36.474035
629.100000	12.298443	36.480406
629.200000	12.292264	36.486853
629.300000	12.286084	36.493375
629.400000	12.279903	36.499876
629.500000	12.273721	36.506350
629.600000	12.267539	36.512805
629.700000	12.261356	36.519250
629.800000	12.255174	36.525693
629.900000	12.248991	36.532144
630.000000	12.242809	36.538612
630.100000	12.236627	36.545103
630.200000	12.230446	36.551629
630.300000	12.224265	36.558197
630.400000	12.218085	36.564816
630.500000	12.211905	36.571494
630.600000	12.205727	36.578241
630.700000	12.199551	36.585067
630.800000	12.193375	36.591978
630.900000	12.187202	36.599049
631.000000	12.181030	36.606295
631.100000	12.174860	36.613680
631.200000	12.168692	36.621172
631.300000	12.162526	36.628738
631.400000	12.156363	36.636344
631.500000	12.150202	36.643957
631.600000	12.144044	36.651542
631.700000	12.137888	36.659068
631.800000	12.131736	36.666499
631.900000	12.125587	36.673802
632.000000	12.119441	36.680946
632.100000	12.113299	36.687895
632.200000	12.107160	36.694617
632.300000	12.101026	36.701112
632.400000	12.094895	36.707409
632.500000	12.088768	36.713540
632.600000	12.082645	36.719535
632.700000	12.076527	36.725426
632.800000	12.070414	36.731242
632.900000	12.064305	36.737016
633.000000	12.058201	36.742779
633.100000	12.052103	36.748562
633.200000	12.046009	36.754395
633.300000	12.039921	36.760309
633.400000	12.033838	36.766336
633.500000	12.027761	36.772506
633.600000	12.021690	36.778851
633.700000	12.015625	36.785403
633.800000	12.009566	36.792190
633.900000	12.003514	36.799265
634.000000	11.997464	36.806650
634.100000	11.991392	36.814298
634.200000	11.985293	36.822165
634.300000	11.979166	36.830205
634.400000	11.973014	36.838373
634.500000	11.966838	36.846622
634.600000	11.960639	36.854909
634.700000	11.954417	36.863188
634.800000	11.948175	36.871411
634.900000	11.941913	36.879535
635.000000	11.935632	36.887515
635.100000	11.929333	36.895306
635.200000	11.923018	36.903025
635.300000	11.916687	36.910748
635.400000	11.910343	36.918464
635.500000	11.903985	36.926160
635.600000	11.897615	36.933827
635.700000	11.891234	36.941454
635.800000	11.884844	36.949030
635.900000	11.878445	36.956544
636.000000	11.872039	36.963987
636.100000	11.865626	36.971344
636.200000	11.859208	36.978609
636.300000	11.852786	36.985769
636.400000	11.846361	36.992812
636.500000	11.839934	36.999731
636.600000	11.833506	37.006534
636.700000	11.827079	37.013231
636.800000	11.820654	37.019835
636.900000	11.814231	37.026357
637.000000	11.807811	37.032808
637.100000	11.801397	37.039200
637.200000	11.794989	37.045547
637.300000	11.788588	37.051857
637.400000	11.782195	37.058144
637.500000	11.775811	37.064418
637.600000	11.769439	37.070691
637.700000	11.763077	37.076977
637.800000	11.756729	37.083284
637.900000	11.750394	37.089626
638.000000	11.744075	37.096015
638.100000	11.737772	37.102413
638.200000	11.731486	37.108779
638.300000	11.725218	37.115116
638.400000	11.718970	37.121432
638.500000	11.712742	37.127737
638.600000	11.706537	37.134037
638.700000	11.700354	37.140338
638.800000	11.694196	37.146650
638.900000	11.688062	37.152980
639.000000	11.681955	37.159334
639.100000	11.675875	37.165721
639.200000	11.669824	37.172148
639.300000	11.663802	37.178623
639.400000	11.657812	37.185153
639.500000	11.651853	37.191745
639.600000	11.645927	37.198408
639.700000	11.640035	37.205143
639.800000	11.634179	37.211945
639.900000	11.628359	37.218806
640.000000	11.622577	37.225721
640.100000	11.616833	37.232683
640.200000	11.611129	37.239686
640.300000	11.605466	37.246723
640.400000	11.599845	37.253788
640.500000	11.594267	37.260875
640.600000	11.588734	37.267976
640.700000	11.583246	37.275086
640.800000	11.577805	37.282198
640.900000	11.572411	37.289306
641.000000	11.567066	37.296403
641.100000	11.561771	37.303501
641.200000	11.556527	37.310641
641.300000	11.551335	37.317816
641.400000	11.546196	37.325020
641.500000	11.541112	37.332244
641.600000	11.536084	37.339481
641.700000	11.531112	37.346722
641.800000	11.526198	37.353959
641.900000	11.521343	37.361185
642.000000	11.516548	37.368391
642.100000	11.511814	37.375569
642.200000	11.507142	37.382711
642.300000	11.502534	37.389810
642.400000	11.497987	37.396857
642.500000	11.493469	37.403841
642.600000	11.488975	37.410744
642.700000	11.484504	37.417579
642.800000	11.480056	37.424359
642.900000	11.475630	37.431099
643.000000	11.471228	37.437812
643.100000	11.466847	37.444509
643.200000	11.462489	37.451207
643.300000	11.458153	37.457919
643.400000	11.453839	37.464657
643.500000	11.449547	37.471435
643.600000	11.445275	37.478268
643.700000	11.441025	37.485168
643.800000	11.436796	37.492149
643.900000	11.432588	37.499225
644.000000	11.428400	37.506453
644.100000	11.424232	37.513902
644.200000	11.420085	37.521527
644.300000	11.415958	37.529282
644.400000	11.411850	37.537122
644.500000	11.407762	37.544997
644.600000	11.403694	37.552862
644.700000	11.399644	37.560671
644.800000	11.395614	37.568376
644.900000	11.391602	37.575931
645.000000	11.387608	37.583289
645.100000	11.383633	37.590402
645.200000	11.379677	37.597225
645.300000	11.375738	37.603720
645.400000	11.371816	37.609974
645.500000	11.367913	37.616039
645.600000	11.364026	37.621935
645.700000	11.360157	37.627681
645.800000	11.356304	37.633297
645.900000	11.352469	37.638803
646.000000	11.348650	37.644217
646.100000	11.344847	37.649558
646.200000	11.341060	37.654848
646.300000	11.337289	37.660106
646.400000	11.333533	37.665349
646.500000	11.329794	37.670600
646.600000	11.326069	37.675875
646.700000	11.322360	37.681197
646.800000	11.318665	37.686582
646.900000	11.314985	37.692052
647.000000	11.311320	37.697626
647.100000	11.307668	37.703322
647.200000	11.304031	37.709093
647.300000	11.300408	37.714899
647.400000	11.296798	37.720735
647.500000	11.293202	37.726602
647.600000	11.289619	37.732497
647.700000	11.286049	37.738417
647.800000	11.282491	37.744363
647.900000	11.278947	37.750330
648.000000	11.275415	37.756318
648.100000	11.271895	37.762325
648.200000	11.268387	37.768348
648.300000	11.264891	37.774387
648.400000	11.261406	37.780439
648.500000	11.257933	37.786502
648.600000	11.254471	37.792575
648.700000	11.251020	37.798656
648.800000	11.247580	37.804742
648.900000	11.244151	37.810852
649.000000	11.240732	37.816992
649.100000	11.237323	37.823160
649.200000	11.233924	37.829351
649.300000	11.230534	37.835563
649.400000	11.227155	37.841792
649.500000	11.223784	37.848033
649.600000	11.220423	37.854284
649.700000	11.217071	37.860541
649.800000	11.213728	37.866800
649.900000	11.210393	37.873058
650.000000	11.207066	37.879312
650.100000	11.203748	37.885558
650.200000	11.200437	37.891792
650.300000	11.197134	37.898011
650.400000	11.193839	37.904210
650.500000	11.190551	37.910397
650.600000	11.187271	37.916580
650.700000	11.183997	37.922760
650.800000	11.180730	37.928937
650.900000	11.177469	37.935113
651.000000	11.174215	37.941283
651.100000	11.170967	37.947451
651.200000	11.167724	37.953614
651.300000	11.164488	37.959774
651.400000	11.161257	37.965930
651.500000	11.158031	37.972082
651.600000	11.154810	37.978230
651.700000	11.151594	37.984373
651.800000	11.148383	37.990512
651.900000	11.145176	37.996645
652.000000	11.141974	38.002774
652.100000	11.138775	38.008890
652.200000	11.135581	38.014955
652.300000	11.132390	38.020973
652.400000	11.129203	38.026952
652.500000	11.126019	38.032905
652.600000	11.122838	38.038843
652.700000	11.119659	38.044775
652.800000	11.116484	38.050713
652.900000	11.113311	38.056669
653.000000	11.110140	38.062652
653.100000	11.106971	38.068675
653.200000	11.103804	38.074747
653.300000	11.100638	38.080880
653.400000	11.097474	38.087085
653.500000	11.094311	38.093371
653.600000	11.091150	38.099751
653.700000	11.087989	38.106237
653.800000	11.084828	38.112881
653.900000	11.081668	38.119738
654.000000	11.078508	38.126770
654.100000	11.075349	38.133943
654.200000	11.072189	38.141220
654.300000	11.069028	38.148563
654.400000	11.065867	38.155939
654.500000	11.062705	38.163311
654.600000	11.059542	38.170642
654.700000	11.056378	38.177894
654.800000	11.053213	38.185035
654.900000	11.050045	38.192025
655.000000	11.046876	38.198829
655.100000	11.043705	38.205412
655.200000	11.040532	38.211744
655.300000	11.037356	38.217846
655.400000	11.034178	38.223750
655.500000	11.030997	38.229485
655.600000	11.027812	38.235083
655.700000	11.024625	38.240569
655.800000	11.021433	38.245978
655.900000	11.018239	38.251335
656.000000	11.015040	38.256673
656.100000	11.011837	38.262019
656.200000	11.008630	38.267405
656.300000	11.005419	38.272860
656.400000	11.002203	38.278412
656.500000	10.998982	38.284093
656.600000	10.995767	38.289931
656.700000	10.992560	38.295957
656.800000	10.989361	38.302199
656.900000	10.986170	38.308687
657.000000	10.982987	38.315515
657.100000	10.979812	38.322734
657.200000	10.976645	38.330279
657.300000	10.973485	38.338088
657.400000	10.970333	38.346095
657.500000	10.967188	38.354236
657.600000	10.964051	38.362446
657.700000	10.960921	38.370663
657.800000	10.957799	38.378821
657.900000	10.954683	38.386856
658.000000	10.951575	38.394705
658.100000	10.948474	38.402302
658.200000	10.945379	38.409583
658.300000	10.942291	38.416612
658.400000	10.939210	38.423541
658.500000	10.936136	38.430377
658.600000	10.933068	38.437123
658.700000	10.930007	38.443787
658.800000	10.926951	38.450369
658.900000	10.923903	38.456877
659.000000	10.920860	38.463314
659.100000	10.917823	38.469685
659.200000	10.914793	38.475995
659.300000	10.911768	38.482248
659.400000	10.908749	38.488449
659.500000	10.905736	38.494602
659.600000	10.902729	38.500712
659.700000	10.899727	38.506785
659.800000	10.896731	38.512819
659.900000	10.893740	38.518758
660.000000	10.890754	38.524586
660.100000	10.887774	38.530317
660.200000	10.884798	38.535967
660.300000	10.881828	38.541549
660.400000	10.878863	38.547077
660.500000	10.875902	38.552566
660.600000	10.872947	38.558031
660.700000	10.869995	38.563484
660.800000	10.867049	38.568940
660.900000	10.864107	38.574414
661.000000	10.861170	38.579919
661.100000	10.858236	38.585471
661.200000	10.855307	38.591082
661.300000	10.852383	38.596767
661.400000	10.849462	38.602542
661.500000	10.846545	38.608419
661.600000	10.843632	38.614416
661.700000	10.840723	38.620591
661.800000	10.837818	38.626934
661.900000	10.834916	38.633414
662.000000	10.832018	38.640002
662.100000	10.829124	38.646668
662.200000	10.826232	38.653382
662.300000	10.823344	38.660116
662.400000	10.820459	38.666838
662.500000	10.817577	38.673520
662.600000	10.814699	38.680131
662.700000	10.811823	38.686644
662.800000	10.808950	38.693027
662.900000	10.806080	38.699249
663.000000	10.803212	38.705284
663.100000	10.800347	38.711101
663.200000	10.797485	38.716686
663.300000	10.794624	38.722103
663.400000	10.791767	38.727373
663.500000	10.788911	38.732512
663.600000	10.786058	38.737535
663.700000	10.783206	38.742456
663.800000	10.780357	38.747291
663.900000	10.777509	38.752056
664.000000	10.774663	38.756765
664.100000	10.771819	38.761433
664.200000	10.768977	38.766076
664.300000	10.766136	38.770708
664.400000	10.763296	38.775344
664.500000	10.760458	38.780001
664.600000	10.757621	38.784691
664.700000	10.754785	38.789433
664.800000	10.751950	38.794239
664.900000	10.749116	38.799126
665.000000	10.746284	38.804108
665.100000	10.743452	38.809201
665.200000	10.740620	38.814419
665.300000	10.737790	38.819735
665.400000	10.734959	38.825107
665.500000	10.732130	38.830534
665.600000	10.729300	38.836014
665.700000	10.726471	38.841544
665.800000	10.723643	38.847125
665.900000	10.720814	38.852753
666.000000	10.717985	38.858426
666.100000	10.715157	38.864144
666.200000	10.712328	38.869904
666.300000	10.709498	38.875704
666.400000	10.706669	38.881543
666.500000	10.703839	38.887418
666.600000	10.701009	38.893329
666.700000	10.698178	38.899273
666.800000	10.695346	38.905248
666.900000	10.692514	38.911254
667.000000	10.689680	38.917289
667.100000	10.686846	38.923407
667.200000	10.684011	38.929616
667.300000	10.681174	38.935904
667.400000	10.678337	38.942259
667.500000	10.675498	38.948671
667.600000	10.672657	38.955127
667.700000	10.669816	38.961617
667.800000	10.666972	38.968128
667.900000	10.664127	38.974650
668.000000	10.661281	38.981170
668.100000	10.658432	38.987676
668.200000	10.655582	38.994159
668.300000	10.652729	39.000605
668.400000	10.649874	39.007005
668.500000	10.647018	39.013345
668.600000	10.644159	39.019623
668.700000	10.641297	39.025892
668.800000	10.638434	39.032156
668.900000	10.635567	39.038415
669.000000	10.632698	39.044665
669.100000	10.629827	39.050903
669.200000	10.626952	39.057127
669.300000	10.624075	39.063333
669.400000	10.621194	39.069518
669.500000	10.618311	39.075679
669.600000	10.615424	39.081815
669.700000	10.612535	39.087921
669.800000	10.609642	39.093995
669.900000	10.606745	39.100034
670.000000	10.603845	39.106035
670.100000	10.600942	39.111995
670.200000	10.598034	39.117911
670.300000	10.595123	39.123767
670.400000	10.592208	39.129556
670.500000	10.589290	39.135283
670.600000	10.586367	39.140960
670.700000	10.583440	39.146595
670.800000	10.580509	39.152195
670.900000	10.577573	39.157768
671.000000	10.574633	39.163324
671.100000	10.571689	39.168872
671.200000	10.568740	39.174419
671.300000	10.565787	39.179972
671.400000	10.562829	39.185543
671.500000	10.559866	39.191138
671.600000	10.556898	39.196767
671.700000	10.553925	39.202436
671.800000	10.550947	39.208155
671.900000	10.547964	39.213933
672.000000	10.544975	39.219778
672.100000	10.541981	39.225691
672.200000	10.538982	39.231669
672.300000	10.535977	39.237699
672.400000	10.532967	39.243776
672.500000	10.529951	39.249890
672.600000	10.526929	39.256034
672.700000	10.523902	39.262199
672.800000	10.520868	39.268377
672.900000	10.517828	39.274560
673.000000	10.514782	39.280740
673.100000	10.511730	39.286907
673.200000	10.508672	39.293056
673.300000	10.505607	39.299176
673.400000	10.502536	39.305260
673.500000	10.499458	39.311299
673.600000	10.496375	39.317285
673.700000	10.493288	39.323214
673.800000	10.490197	39.329095
673.900000	10.487102	39.334936
674.000000	10.484003	39.340741
674.100000	10.480900	39.346517
674.200000	10.477793	39.352269
674.300000	10.474683	39.358002
674.400000	10.471568	39.363721
674.500000	10.468450	39.369433
674.600000	10.465328	39.375143
674.700000	10.462202	39.380855
674.800000	10.459073	39.386575
674.900000	10.455940	39.392311
675.000000	10.452803	39.398065
675.100000	10.449663	39.403845
675.200000	10.446520	39.409654
675.300000	10.443373	39.415501
675.400000	10.440223	39.421388
675.500000	10.437069	39.427354
675.600000	10.433912	39.433412
675.700000	10.430752	39.439544
675.800000	10.427589	39.445735
675.900000	10.424422	39.451964
676.000000	10.421253	39.458220
676.100000	10.418080	39.464481
676.200000	10.414904	39.470733
676.300000	10.411725	39.476958
676.400000	10.408544	39.483139
676.500000	10.405359	39.489261
676.600000	10.402172	39.495305
676.700000	10.398981	39.501256
676.800000	10.395788	39.507096
676.900000	10.392592	39.512808
677.000000	10.389394	39.518376
677.100000	10.386193	39.523785
677.200000	10.382989	39.529052
677.300000	10.379782	39.534195
677.400000	10.376574	39.539228
677.500000	10.373362	39.544161
677.600000	10.370149	39.549007
677.700000	10.366932	39.553779
677.800000	10.363714	39.558489
677.900000	10.360493	39.563149
678.000000	10.357270	39.567773
678.100000	10.354045	39.572373
678.200000	10.350817	39.576959
678.300000	10.347588	39.581547
678.400000	10.344356	39.586146
678.500000	10.341122	39.590770
678.600000	10.337886	39.595433
678.700000	10.334649	39.600144
678.800000	10.331409	39.604918
678.900000	10.328167	39.609766
679.000000	10.324924	39.614701
679.100000	10.321679	39.619736
679.200000	10.318432	39.624881
679.300000	10.315183	39.630124
679.400000	10.311933	39.635453
679.500000	10.308681	39.640859
679.600000	10.305428	39.646331
679.700000	10.302173	39.651862
679.800000	10.298916	39.657441
679.900000	10.295659	39.663059
680.000000	10.292399	39.668707
680.100000	10.289139	39.674375
680.200000	10.285877	39.680053
680.300000	10.282613	39.685734
680.400000	10.279349	39.691406
680.500000	10.276083	39.697061
680.600000	10.272816	39.702690
680.700000	10.269548	39.708283
680.800000	10.266279	39.713831
680.900000	10.263009	39.719325
681.000000	10.259738	39.724753
681.100000	10.256466	39.730118
681.200000	10.253194	39.735428
681.300000	10.249920	39.740688
681.400000	10.246646	39.745911
681.500000	10.243370	39.751100
681.600000	10.240094	39.756266
681.700000	10.236818	39.761415
681.800000	10.233541	39.766557
681.900000	10.230263	39.771698
682.000000	10.226984	39.776847
682.100000	10.223706	39.782010
682.200000	10.220426	39.787197
682.300000	10.217147	39.792415
682.400000	10.213867	39.797673
682.500000	10.210586	39.802977
682.600000	10.207305	39.808336
682.700000	10.204024	39.813758
682.800000	10.200743	39.819250
682.900000	10.197462	39.824821
683.000000	10.194181	39.830513
683.100000	10.190899	39.836358
683.200000	10.187618	39.842336
683.300000	10.184336	39.848420
683.400000	10.181055	39.854588
683.500000	10.177773	39.860817
683.600000	10.174492	39.867083
683.700000	10.171211	39.873364
683.800000	10.167930	39.879637
683.900000	10.164650	39.885877
684.000000	10.161370	39.892061
684.100000	10.158090	39.898168
684.200000	10.154811	39.904172
684.300000	10.151532	39.910051
684.400000	10.148253	39.915782
684.500000	10.144975	39.921340
684.600000	10.141698	39.926705
684.700000	10.138421	39.931886
684.800000	10.135145	39.936913
684.900000	10.131870	39.941803
685.000000	10.128595	39.946571
685.100000	10.125321	39.951232
685.200000	10.122048	39.955805
685.300000	10.118776	39.960302
685.400000	10.115505	39.964741
685.500000	10.112235	39.969139
685.600000	10.108965	39.973510
685.700000	10.105697	39.977870
685.800000	10.102430	39.982236
685.900000	10.099164	39.986623
686.000000	10.095899	39.991048
686.100000	10.092636	39.995525
686.200000	10.089373	40.000072
686.300000	10.086112	40.004704
686.400000	10.082853	40.009437
686.500000	10.079595	40.014288
686.600000	10.076338	40.019270
686.700000	10.073082	40.024402
686.800000	10.069829	40.029703
686.900000	10.066576	40.035208
687.000000	10.063326	40.040903
687.100000	10.060077	40.046763
687.200000	10.056829	40.052764
687.300000	10.053584	40.058883
687.400000	10.050340	40.065095
687.500000	10.047098	40.071376
687.600000	10.043858	40.077701
687.700000	10.040620	40.084048
687.800000	10.037384	40.090391
687.900000	10.034149	40.096706
688.000000	10.030917	40.102970
688.100000	10.027687	40.109159
688.200000	10.024459	40.115247
688.300000	10.021233	40.121213
688.400000	10.018009	40.127030
688.500000	10.014788	40.132705
688.600000	10.011569	40.138297
688.700000	10.008352	40.143818
688.800000	10.005138	40.149275
688.900000	10.001926	40.154676
689.000000	9.998716	40.160029
689.100000	9.995508	40.165343
689.200000	9.992300	40.170625
689.300000	9.989093	40.175883
689.400000	9.985887	40.181127
689.500000	9.982682	40.186362
689.600000	9.979478	40.191597
689.700000	9.976274	40.196842
689.800000	9.973071	40.202103
689.900000	9.969869	40.207389
690.000000	9.966668	40.212707
690.100000	9.963467	40.218067
690.200000	9.960267	40.223475
690.300000	9.957068	40.228940
690.400000	9.953870	40.234465
690.500000	9.950672	40.240043
690.600000	9.947475	40.245668
690.700000	9.944278	40.251329
690.800000	9.941082	40.257024
690.900000	9.937887	40.262741
691.000000	9.934692	40.268475
691.100000	9.931499	40.274218
691.200000	9.928305	40.279965
691.300000	9.925112	40.285707
691.400000	9.921920	40.291435
691.500000	9.918729	40.297146
691.600000	9.915538	40.302830
691.700000	9.912347	40.308479
691.800000	9.909157	40.314089
691.900000	9.905968	40.319650
692.000000	9.902779	40.325157
692.100000	9.899591	40.330600
692.200000	9.896403	40.335982
692.300000	9.893216	40.341311
692.400000	9.890029	40.346593
692.500000	9.886842	40.351833
692.600000	9.883656	40.357035
692.700000	9.880471	40.362207
692.800000	9.877286	40.367354
692.900000	9.874101	40.372480
693.000000	9.870917	40.377592
693.100000	9.867733	40.382694
693.200000	9.864550	40.387793
693.300000	9.861367	40.392892
693.400000	9.858184	40.398000
693.500000	9.855002	40.403120
693.600000	9.851820	40.408259
693.700000	9.848638	40.413420
693.800000	9.845457	40.418611
693.900000	9.842276	40.423836
694.000000	9.839095	40.429102
694.100000	9.835914	40.434411
694.200000	9.832734	40.439760
694.300000	9.829554	40.445143
694.400000	9.826375	40.450556
694.500000	9.823195	40.455993
694.600000	9.820016	40.461452
694.700000	9.816837	40.466928
694.800000	9.813658	40.472415
694.900000	9.810480	40.477910
695.000000	9.807302	40.483408
695.100000	9.804123	40.488904
695.200000	9.800945	40.494395
695.300000	9.797768	40.499876
695.400000	9.794590	40.505342
695.500000	9.791412	40.510789
695.600000	9.788235	40.516213
695.700000	9.785058	40.521609
695.800000	9.781880	40.526972
695.900000	9.778703	40.532300
696.000000	9.775526	40.537596
696.100000	9.772349	40.542878
696.200000	9.769172	40.548146
696.300000	9.765995	40.553398
696.400000	9.762819	40.558637
696.500000	9.759642	40.563861
696.600000	9.756465	40.569073
696.700000	9.753288	40.574272
696.800000	9.750111	40.579459
696.900000	9.746935	40.584634
697.000000	9.743758	40.589797
697.100000	9.740581	40.594950
697.200000	9.737404	40.600092
697.300000	9.734227	40.605224
697.400000	9.731050	40.610347
697.500000	9.727873	40.615461
697.600000	9.724695	40.620566
697.700000	9.721518	40.625663
697.800000	9.718340	40.630753
697.900000	9.715163	40.635836
698.000000	9.711985	40.640914
698.100000	9.708807	40.645991
698.200000	9.705629	40.651063
698.300000	9.702451	40.656128
698.400000	9.699272	40.661188
698.500000	9.696094	40.666239
698.600000	9.692915	40.671282
698.700000	9.689736	40.676314
698.800000	9.686556	40.681335
698.900000	9.683377	40.686344
699.000000	9.680197	40.691340
699.100000	9.677017	40.696321
699.200000	9.673837	40.701286
699.300000	9.670656	40.706235
699.400000	9.667475	40.711166
699.500000	9.664294	40.716078
699.600000	9.661112	40.720968
699.700000	9.657930	40.725839
699.800000	9.654748	40.730686
699.900000	9.651566	40.735510
700.000000	9.648383	40.740313
700.100000	9.645199	40.745095
700.200000	9.642016	40.749859
700.300000	9.638832	40.754604
700.400000	9.635647	40.759332
700.500000	9.632462	40.764042
700.600000	9.629277	40.768738
700.700000	9.626091	40.773417
700.800000	9.622905	40.778084
700.900000	9.619718	40.782736
701.000000	9.616531	40.787375
701.100000	9.613343	40.792003
701.200000	9.610155	40.796619
701.300000	9.606966	40.801224
701.400000	9.603777	40.805821
701.500000	9.600588	40.810407
701.600000	9.597397	40.814987
701.700000	9.594207	40.819558
701.800000	9.591015	40.824123
701.900000	9.587823	40.828683
702.000000	9.584631	40.833238
702.100000	9.581438	40.837785
702.200000	9.578244	40.842295
702.300000	9.575050	40.846768
702.400000	9.571855	40.851206
702.500000	9.568659	40.855617
702.600000	9.565463	40.860004
702.700000	9.562266	40.864373
702.800000	9.559068	40.868727
702.900000	9.555870	40.873070
703.000000	9.552671	40.877410
703.100000	9.549472	40.881750
703.200000	9.546271	40.886095
703.300000	9.543070	40.890450
703.400000	9.539868	40.894819
703.500000	9.536666	40.899208
703.600000	9.533462	40.903620
703.700000	9.530258	40.908061
703.800000	9.527053	40.912537
703.900000	9.523848	40.917050
704.000000	9.520641	40.921606
704.100000	9.517434	40.926211
704.200000	9.514226	40.930868
704.300000	9.511017	40.935583
704.400000	9.507807	40.940369
704.500000	9.504596	40.945245
704.600000	9.501384	40.950204
704.700000	9.498172	40.955235
704.800000	9.494959	40.960329
704.900000	9.491744	40.965475
705.000000	9.488529	40.970665
705.100000	9.485313	40.975888
705.200000	9.482096	40.981135
705.300000	9.478878	40.986395
705.400000	9.475660	40.991660
705.500000	9.472440	40.996918
705.600000	9.469220	41.002161
705.700000	9.465998	41.007378
705.800000	9.462776	41.012558
705.900000	9.459554	41.017695
706.000000	9.456330	41.022776
706.100000	9.453106	41.027793
706.200000	9.449881	41.032736
706.300000	9.446655	41.037593
706.400000	9.443428	41.042357
706.500000	9.440201	41.047034
706.600000	9.436973	41.051631
706.700000	9.433744	41.056160
706.800000	9.430515	41.060629
706.900000	9.427285	41.065050
707.000000	9.424054	41.069430
707.100000	9.420823	41.073781
707.200000	9.417591	41.078111
707.300000	9.414358	41.082432
707.400000	9.411125	41.086751
707.500000	9.407891	41.091081
707.600000	9.404656	41.095429
707.700000	9.401421	41.099806
707.800000	9.398186	41.104222
707.900000	9.394949	41.108685
708.000000	9.391713	41.113208
708.100000	9.388475	41.117799
708.200000	9.385238	41.122466
708.300000	9.381999	41.127222
708.400000	9.378761	41.132074
708.500000	9.375521	41.137035
708.600000	9.372282	41.142124
708.700000	9.369041	41.147384
708.800000	9.365801	41.152801
708.900000	9.362560	41.158357
709.000000	9.359318	41.164030
709.100000	9.356076	41.169799
709.200000	9.352834	41.175645
709.300000	9.349591	41.181547
709.400000	9.346348	41.187486
709.500000	9.343105	41.193441
709.600000	9.339861	41.199392
709.700000	9.336617	41.205317
709.800000	9.333372	41.211200
709.900000	9.330128	41.217016
710.000000	9.326883	41.222748
710.100000	9.323637	41.228374
710.200000	9.320392	41.233875
710.300000	9.317146	41.239231
710.400000	9.313900	41.244456
710.500000	9.310653	41.249610
710.600000	9.307406	41.254702
710.700000	9.304160	41.259735
710.800000	9.300913	41.264714
710.900000	9.297665	41.269644
711.000000	9.294418	41.274531
711.100000	9.291170	41.279379
711.200000	9.287922	41.284194
711.300000	9.284674	41.288980
711.400000	9.281426	41.293743
711.500000	9.278178	41.298488
711.600000	9.274930	41.303219
711.700000	9.271681	41.307941
711.800000	9.268433	41.312661
711.900000	9.265184	41.317382
712.000000	9.261936	41.322111
712.100000	9.258687	41.326850
712.200000	9.255438	41.331607
712.300000	9.252189	41.336385
712.400000	9.248941	41.341191
712.500000	9.245692	41.346021
712.600000	9.242443	41.350869
712.700000	9.239194	41.355730
712.800000	9.235946	41.360601
712.900000	9.232697	41.365480
713.000000	9.229448	41.370361
713.100000	9.226200	41.375244
713.200000	9.222951	41.380124
713.300000	9.219703	41.384997
713.400000	9.216455	41.389862
713.500000	9.213206	41.394713
713.600000	9.209958	41.399548
713.700000	9.206710	41.404364
713.800000	9.203463	41.409157
713.900000	9.200215	41.413925
714.000000	9.196968	41.418664
714.100000	9.193720	41.423370
714.200000	9.190473	41.428039
714.300000	9.187227	41.432671
714.400000	9.183980	41.437259
714.500000	9.180734	41.441802
714.600000	9.177488	41.446289
714.700000	9.174242	41.450710
714.800000	9.170996	41.455073
714.900000	9.167751	41.459383
715.000000	9.164506	41.463647
715.100000	9.161261	41.467872
715.200000	9.158017	41.472061
715.300000	9.154773	41.476224
715.400000	9.151529	41.480365
715.500000	9.148286	41.484490
715.600000	9.145043	41.488607
715.700000	9.141800	41.492720
715.800000	9.138558	41.496837
715.900000	9.135316	41.500963
716.000000	9.132075	41.505105
716.100000	9.128834	41.509269
716.200000	9.125593	41.513461
716.300000	9.122353	41.517687
716.400000	9.119113	41.521953
716.500000	9.115874	41.526267
716.600000	9.112635	41.530633
716.700000	9.109397	41.535059
716.800000	9.106160	41.539549
716.900000	9.102923	41.544112
717.000000	9.099686	41.548769
717.100000	9.096450	41.553521
717.200000	9.093214	41.558357
717.300000	9.089979	41.563267
717.400000	9.086745	41.568241
717.500000	9.083511	41.573268
717.600000	9.080278	41.578337
717.700000	9.077046	41.583437
717.800000	9.073814	41.588558
717.900000	9.070583	41.593689
718.000000	9.067352	41.598821
718.100000	9.064122	41.603941
718.200000	9.060893	41.609039
718.300000	9.057664	41.614104
718.400000	9.054436	41.619127
718.500000	9.051209	41.624097
718.600000	9.047983	41.629002
718.700000	9.044757	41.633833
718.800000	9.041532	41.638577
718.900000	9.038308	41.643226
719.000000	9.035085	41.647783
719.100000	9.031862	41.652286
719.200000	9.028640	41.656738
719.300000	9.025419	41.661144
719.400000	9.022199	41.665506
719.500000	9.018980	41.669829
719.600000	9.015761	41.674115
719.700000	9.012544	41.678369
719.800000	9.009327	41.682594
719.900000	9.006111	41.686793
720.000000	9.002896	41.690969
720.100000	8.999682	41.695127
720.200000	8.996469	41.699269
720.300000	8.993257	41.703400
720.400000	8.990046	41.707522
720.500000	8.986836	41.711640
720.600000	8.983628	41.715755
720.700000	8.980420	41.719874
720.800000	8.977213	41.723996
720.900000	8.974008	41.728129
721.000000	8.970803	41.732275
721.100000	8.967600	41.736436
721.200000	8.964397	41.740616
721.300000	8.961196	41.744819
721.400000	8.957995	41.749035
721.500000	8.954795	41.753238
721.600000	8.951596	41.757432
721.700000	8.948398	41.761616
721.800000	8.945201	41.765792
721.900000	8.942005	41.769963
722.000000	8.938809	41.774130
722.100000	8.935615	41.778294
722.200000	8.932421	41.782458
722.300000	8.929228	41.786621
722.400000	8.926036	41.790787
722.500000	8.922845	41.794957
722.600000	8.919654	41.799132
722.700000	8.916464	41.803315
722.800000	8.913275	41.807505
722.900000	8.910086	41.811706
723.000000	8.906898	41.815918
723.100000	8.903711	41.820143
723.200000	8.900525	41.824384
723.300000	8.897339	41.828641
723.400000	8.894153	41.832915
723.500000	8.890969	41.837210
723.600000	8.887785	41.841525
723.700000	8.884601	41.845863
723.800000	8.881418	41.850226
723.900000	8.878236	41.854614
724.000000	8.875054	41.859024
724.100000	8.871872	41.863455
724.200000	8.868691	41.867906
724.300000	8.865511	41.872375
724.400000	8.862331	41.876860
724.500000	8.859151	41.881359
724.600000	8.855972	41.885871
724.700000	8.852794	41.890394
724.800000	8.849615	41.894926
724.900000	8.846437	41.899466
725.000000	8.843260	41.904011
725.100000	8.840082	41.908561
725.200000	8.836905	41.913113
725.300000	8.833729	41.917666
725.400000	8.830553	41.922218
725.500000	8.827376	41.926767
725.600000	8.824201	41.931312
725.700000	8.821025	41.935851
725.800000	8.817850	41.940382
725.900000	8.814675	41.944904
726.000000	8.811500	41.949416
726.100000	8.808325	41.953935
726.200000	8.805151	41.958463
726.300000	8.801976	41.962998
726.400000	8.798802	41.967539
726.500000	8.795628	41.972085
726.600000	8.792454	41.976635
726.700000	8.789280	41.981186
726.800000	8.786106	41.985739
726.900000	8.782932	41.990290
727.000000	8.779758	41.994839
727.100000	8.776585	41.999385
727.200000	8.773411	42.003926
727.300000	8.770237	42.008461
727.400000	8.767063	42.012988
727.500000	8.763889	42.017506
727.600000	8.760715	42.022014
727.700000	8.757541	42.026509
727.800000	8.754367	42.030992
727.900000	8.751193	42.035460
728.000000	8.748019	42.039912
728.100000	8.744844	42.044347
728.200000	8.741670	42.048762
728.300000	8.738495	42.053153
728.400000	8.735320	42.057513
728.500000	8.732145	42.061845
728.600000	8.728969	42.066155
728.700000	8.725794	42.070444
728.800000	8.722618	42.074715
728.900000	8.719442	42.078972
729.000000	8.716265	42.083217
729.100000	8.713088	42.087454
729.200000	8.709911	42.091686
729.300000	8.706734	42.095915
729.400000	8.703556	42.100145
729.500000	8.700378	42.104379
729.600000	8.697200	42.108620
729.700000	8.694021	42.112871
729.800000	8.690841	42.117135
729.900000	8.687662	42.121415
730.000000	8.684481	42.125713
730.100000	8.681301	42.130035
730.200000	8.678120	42.134381
730.300000	8.674938	42.138756
730.400000	8.671756	42.143162
730.500000	8.668573	42.147603
730.600000	8.665390	42.152084
730.700000	8.662206	42.156623
730.800000	8.659022	42.161216
730.900000	8.655837	42.165857
731.000000	8.652651	42.170538
731.100000	8.649465	42.175255
731.200000	8.646278	42.179999
731.300000	8.643091	42.184764
731.400000	8.639903	42.189546
731.500000	8.636714	42.194336
731.600000	8.633524	42.199128
731.700000	8.630334	42.203916
731.800000	8.627143	42.208693
731.900000	8.623951	42.213454
732.000000	8.620759	42.218190
732.100000	8.617565	42.222895
732.200000	8.614371	42.227565
732.300000	8.611176	42.232192
732.400000	8.607981	42.236768
732.500000	8.604784	42.241289
732.600000	8.601586	42.245747
732.700000	8.598388	42.250136
732.800000	8.595189	42.254454
732.900000	8.591989	42.258705
733.000000	8.588788	42.262897
733.100000	8.585585	42.267035
733.200000	8.582382	42.271124
733.300000	8.579178	42.275170
733.400000	8.575973	42.279178
733.500000	8.572767	42.283155
733.600000	8.569560	42.287107
733.700000	8.566352	42.291036
733.800000	8.563143	42.294953
733.900000	8.559933	42.298859
734.000000	8.556722	42.302761
734.100000	8.553509	42.306667
734.200000	8.550296	42.310579
734.300000	8.547081	42.314505
734.400000	8.543865	42.318450
734.500000	8.540648	42.322419
734.600000	8.537430	42.326418
734.700000	8.534211	42.330453
734.800000	8.530990	42.334530
734.900000	8.527768	42.338654
735.000000	8.524545	42.342830
735.100000	8.521320	42.347063
735.200000	8.518095	42.351362
735.300000	8.514868	42.355728
735.400000	8.511640	42.360157
735.500000	8.508410	42.364645
735.600000	8.505179	42.369185
735.700000	8.501947	42.373773
735.800000	8.498713	42.378404
735.900000	8.495479	42.383070
736.000000	8.492244	42.387768
736.100000	8.489009	42.392492
736.200000	8.485773	42.397237
736.300000	8.482537	42.401997
736.400000	8.479300	42.406766
736.500000	8.476063	42.411541
736.600000	8.472826	42.416314
736.700000	8.469588	42.421082
736.800000	8.466349	42.425837
736.900000	8.463110	42.430576
737.000000	8.459871	42.435292
737.100000	8.456631	42.439980
737.200000	8.453391	42.444636
737.300000	8.450150	42.449253
737.400000	8.446908	42.453828
737.500000	8.443666	42.458394
737.600000	8.440424	42.462968
737.700000	8.437181	42.467548
737.800000	8.433938	42.472131
737.900000	8.430694	42.476713
738.000000	8.427450	42.481294
738.100000	8.424205	42.485869
738.200000	8.420959	42.490436
738.300000	8.417713	42.494994
738.400000	8.414467	42.499538
738.500000	8.411220	42.504066
738.600000	8.407973	42.508576
738.700000	8.404725	42.513066
738.800000	8.401476	42.517532
738.900000	8.398227	42.521972
739.000000	8.394978	42.526382
739.100000	8.391728	42.530762
739.200000	8.388477	42.535107
739.300000	8.385226	42.539416
739.400000	8.381974	42.543686
739.500000	8.378722	42.547913
739.600000	8.375469	42.552096
739.700000	8.372216	42.556232
739.800000	8.368962	42.560321
739.900000	8.365708	42.564366
740.000000	8.362453	42.568369
740.100000	8.359197	42.572334
740.200000	8.355941	42.576264
740.300000	8.352685	42.580163
740.400000	8.349427	42.584032
740.500000	8.346170	42.587875
740.600000	8.342911	42.591696
740.700000	8.339652	42.595497
740.800000	8.336393	42.599281
740.900000	8.333133	42.603050
741.000000	8.329872	42.606809
741.100000	8.326611	42.610560
741.200000	8.323349	42.614306
741.300000	8.320087	42.618052
741.400000	8.316824	42.621798
741.500000	8.313560	42.625548
741.600000	8.310296	42.629306
741.700000	8.307032	42.633074
741.800000	8.303766	42.636856
741.900000	8.300500	42.640654
742.000000	8.297234	42.644471
742.100000	8.293967	42.648312
742.200000	8.290699	42.652178
742.300000	8.287431	42.656071
742.400000	8.284162	42.659973
742.500000	8.280892	42.663876
742.600000	8.277622	42.667780
742.700000	8.274351	42.671688
742.800000	8.271080	42.675597
742.900000	8.267808	42.679509
743.000000	8.264535	42.683426
743.100000	8.261262	42.687346
743.200000	8.257988	42.691271
743.300000	8.254714	42.695199
743.400000	8.251438	42.699134
743.500000	8.248163	42.703074
743.600000	8.244886	42.707020
743.700000	8.241609	42.710974
743.800000	8.238331	42.714934
743.900000	8.235053	42.718902
744.000000	8.231774	42.722878
744.100000	8.228494	42.726862
744.200000	8.225214	42.730855
744.300000	8.221933	42.734857
744.400000	8.218651	42.738870
744.500000	8.215369	42.742892
744.600000	8.212086	42.746926
744.700000	8.208802	42.750971
744.800000	8.205518	42.755026
744.900000	8.202233	42.759095
745.000000	8.198948	42.763177
745.100000	8.195661	42.767271
745.200000	8.192374	42.771377
745.300000	8.189087	42.775495
745.400000	8.185798	42.779622
745.500000	8.182509	42.783761
745.600000	8.179219	42.787910
745.700000	8.175929	42.792068
745.800000	8.172638	42.796234
745.900000	8.169346	42.800409
746.000000	8.166054	42.804591
746.100000	8.162760	42.808781
746.200000	8.159466	42.812978
746.300000	8.156172	42.817180
746.400000	8.152877	42.821389
746.500000	8.149580	42.825602
746.600000	8.146284	42.829821
746.700000	8.142986	42.834042
746.800000	8.139688	42.838269
746.900000	8.136389	42.842498
747.000000	8.133090	42.846728
747.100000	8.129789	42.850962
747.200000	8.126488	42.855197
747.300000	8.123186	42.859434
747.400000	8.119884	42.863673
747.500000	8.116581	42.867917
747.600000	8.113277	42.872165
747.700000	8.109972	42.876418
747.800000	8.106667	42.880675
747.900000	8.103360	42.884937
748.000000	8.100053	42.889204
748.100000	8.096746	42.893476
748.200000	8.093437	42.897754
748.300000	8.090128	42.902037
748.400000	8.086818	42.906325
748.500000	8.083507	42.910620
748.600000	8.080196	42.914920
748.700000	8.076884	42.919226
748.800000	8.073571	42.923538
748.900000	8.070257	42.927858
749.000000	8.066942	42.932183
749.100000	8.063627	42.936516
749.200000	8.060311	42.940855
749.300000	8.056994	42.945202
749.400000	8.053676	42.949556
749.500000	8.050358	42.953917
749.600000	8.047039	42.958286
749.700000	8.043719	42.962674
749.800000	8.040398	42.967086
749.900000	8.037076	42.971522
750.000000	8.033754	42.975978
750.100000	8.030431	42.980450
750.200000	8.027107	42.984938
750.300000	8.023782	42.989437
750.400000	8.020457	42.993944
750.500000	8.017130	42.998458
750.600000	8.013803	43.002973
750.700000	8.010475	43.007489
750.800000	8.007146	43.012001
750.900000	8.003817	43.016508
751.000000	8.000486	43.021005
751.100000	7.997156	43.025491
751.200000	7.993826	43.029963
751.300000	7.990497	43.034416
751.400000	7.987169	43.038849
751.500000	7.983842	43.043258
751.600000	7.980515	43.047643
751.700000	7.977190	43.051997
751.800000	7.973865	43.056319
751.900000	7.970540	43.060607
752.000000	7.967216	43.064868
752.100000	7.963893	43.069106
752.200000	7.960571	43.073324
752.300000	7.957249	43.077520
752.400000	7.953927	43.081699
752.500000	7.950606	43.085861
752.600000	7.947285	43.090007
752.700000	7.943965	43.094139
752.800000	7.940645	43.098256
752.900000	7.937325	43.102364
753.000000	7.934006	43.106460
753.100000	7.930687	43.110547
753.200000	7.927368	43.114627
753.300000	7.924050	43.118700
753.400000	7.920731	43.122769
753.500000	7.917413	43.126834
753.600000	7.914094	43.130897
753.700000	7.910776	43.134959
753.800000	7.907458	43.139022
753.900000	7.904140	43.143087
754.000000	7.900822	43.147155
754.100000	7.897503	43.151228
754.200000	7.894185	43.155307
754.300000	7.890866	43.159393
754.400000	7.887547	43.163480
754.500000	7.884228	43.167547
754.600000	7.880909	43.171595
754.700000	7.877589	43.175628
754.800000	7.874270	43.179648
754.900000	7.870949	43.183658
755.000000	7.867629	43.187658
755.100000	7.864308	43.191653
755.200000	7.860986	43.195645
755.300000	7.857664	43.199637
755.400000	7.854342	43.203630
755.500000	7.851019	43.207626
755.600000	7.847695	43.211629
755.700000	7.844371	43.215642
755.800000	7.841046	43.219666
755.900000	7.837721	43.223704
756.000000	7.834394	43.227758
756.100000	7.831067	43.231831
756.200000	7.827739	43.235924
756.300000	7.824411	43.240043
756.400000	7.821081	43.244186
756.500000	7.817751	43.248360
756.600000	7.814419	43.252563
756.700000	7.811087	43.256800
756.800000	7.807754	43.261073
756.900000	7.804419	43.265389
757.000000	7.801084	43.269752
757.100000	7.797747	43.274158
757.200000	7.794410	43.278604
757.300000	7.791071	43.283084
757.400000	7.787731	43.287597
757.500000	7.784390	43.292138
757.600000	7.781047	43.296702
757.700000	7.777703	43.301288
757.800000	7.774358	43.305888
757.900000	7.771012	43.310502
758.000000	7.767664	43.315124
758.100000	7.764315	43.319751
758.200000	7.760964	43.324379
758.300000	7.757612	43.329004
758.400000	7.754258	43.333621
758.500000	7.750902	43.338229
758.600000	7.747545	43.342822
758.700000	7.744187	43.347396
758.800000	7.740826	43.351948
758.900000	7.737464	43.356474
759.000000	7.734101	43.360971
759.100000	7.730735	43.365439
759.200000	7.727368	43.369895
759.300000	7.723999	43.374343
759.400000	7.720628	43.378782
759.500000	7.717255	43.383213
759.600000	7.713880	43.387635
759.700000	7.710503	43.392051
759.800000	7.707124	43.396460
759.900000	7.703743	43.400862
760.000000	7.700360	43.405260
760.100000	7.696975	43.409651
760.200000	7.693588	43.414038
760.300000	7.690199	43.418422
760.400000	7.686807	43.422801
760.500000	7.683413	43.427176
760.600000	7.680017	43.431550
760.700000	7.676618	43.435922
760.800000	7.673218	43.440291
760.900000	7.669814	43.444659
761.000000	7.666409	43.449027
761.100000	7.663001	43.453395
761.200000	7.659590	43.457763
761.300000	7.656177	43.462131
761.400000	7.652762	43.466504
761.500000	7.649343	43.470887
761.600000	7.645923	43.475277
761.700000	7.642499	43.479676
761.800000	7.639073	43.484078
761.900000	7.635644	43.488485
762.000000	7.632212	43.492894
762.100000	7.628778	43.497301
762.200000	7.625341	43.501707
762.300000	7.621901	43.506108
762.400000	7.618458	43.510504
762.500000	7.615012	43.514892
762.600000	7.611563	43.519271
762.700000	7.608111	43.523638
762.800000	7.604656	43.527993
762.900000	7.601198	43.532333
763.000000	7.597737	43.536657
763.100000	7.594273	43.540962
763.200000	7.590806	43.545248
763.300000	7.587336	43.549511
763.400000	7.583862	43.553750
763.500000	7.580385	43.557963
763.600000	7.576905	43.562149
763.700000	7.573421	43.566306
763.800000	7.569934	43.570436
763.900000	7.566444	43.574539
764.000000	7.562950	43.578618
764.100000	7.559453	43.582675
764.200000	7.555952	43.586711
764.300000	7.552448	43.590728
764.400000	7.548940	43.594728
764.500000	7.545428	43.598711
764.600000	7.541913	43.602680
764.700000	7.538395	43.606636
764.800000	7.534872	43.610582
764.900000	7.531346	43.614519
765.000000	7.527816	43.618447
765.100000	7.524282	43.622371
765.200000	7.520745	43.626289
765.300000	7.517203	43.630206
765.400000	7.513658	43.634122
765.500000	7.510109	43.638038
765.600000	7.506556	43.641957
765.700000	7.502998	43.645880
765.800000	7.499437	43.649809
765.900000	7.495874	43.653745
766.000000	7.492312	43.657691
766.100000	7.488749	43.661648
766.200000	7.485186	43.665617
766.300000	7.481623	43.669598
766.400000	7.478060	43.673587
766.500000	7.474496	43.677585
766.600000	7.470932	43.681590
766.700000	7.467367	43.685599
766.800000	7.463802	43.689613
766.900000	7.460237	43.693631
767.000000	7.456670	43.697649
767.100000	7.453103	43.701670
767.200000	7.449535	43.705688
767.300000	7.445967	43.709706
767.400000	7.442397	43.713721
767.500000	7.438826	43.717731
767.600000	7.435254	43.721737
767.700000	7.431682	43.725735
767.800000	7.428108	43.729726
767.900000	7.424532	43.733708
768.000000	7.420956	43.737681
768.100000	7.417378	43.741642
768.200000	7.413798	43.745590
768.300000	7.410217	43.749525
768.400000	7.406635	43.753445
768.500000	7.403050	43.757349
768.600000	7.399464	43.761236
768.700000	7.395877	43.765104
768.800000	7.392287	43.768951
768.900000	7.388696	43.772762
769.000000	7.385102	43.776541
769.100000	7.381507	43.780291
769.200000	7.377909	43.784014
769.300000	7.374309	43.787713
769.400000	7.370707	43.791393
769.500000	7.367103	43.795056
769.600000	7.363496	43.798704
769.700000	7.359887	43.802343
769.800000	7.356275	43.805974
769.900000	7.352661	43.809601
770.000000	7.349044	43.813227
770.100000	7.345424	43.816855
770.200000	7.341802	43.820488
770.300000	7.338177	43.824131
770.400000	7.334549	43.827785
770.500000	7.330918	43.831454
770.600000	7.327284	43.835141
770.700000	7.323646	43.838850
770.800000	7.320006	43.842584
770.900000	7.316362	43.846345
771.000000	7.312715	43.850137
771.100000	7.309065	43.853962
771.200000	7.305412	43.857826
771.300000	7.301754	43.861729
771.400000	7.298094	43.865677
771.500000	7.294429	43.869672
771.600000	7.290761	43.873716
771.700000	7.287090	43.877807
771.800000	7.283414	43.881942
771.900000	7.279734	43.886116
772.000000	7.276051	43.890326
772.100000	7.272364	43.894571
772.200000	7.268672	43.898845
772.300000	7.264976	43.903146
772.400000	7.261276	43.907469
772.500000	7.257572	43.911812
772.600000	7.253864	43.916171
772.700000	7.250151	43.920544
772.800000	7.246433	43.924926
772.900000	7.242711	43.929313
773.000000	7.238985	43.933704
773.100000	7.235254	43.938094
773.200000	7.231518	43.942479
773.300000	7.227777	43.946858
773.400000	7.224031	43.951225
773.500000	7.220281	43.955578
773.600000	7.216525	43.959913
773.700000	7.212764	43.964227
773.800000	7.208998	43.968517
773.900000	7.205227	43.972786
774.000000	7.201451	43.977042
774.100000	7.197670	43.981288
774.200000	7.193883	43.985526
774.300000	7.190090	43.989756
774.400000	7.186292	43.993981
774.500000	7.182488	43.998200
774.600000	7.178679	44.002418
774.700000	7.174864	44.006632
774.800000	7.171044	44.010848
774.900000	7.167217	44.015064
775.000000	7.163384	44.019284
775.100000	7.159546	44.023507
775.200000	7.155701	44.027736
775.300000	7.151851	44.031972
775.400000	7.147994	44.036217
775.500000	7.144130	44.040472
775.600000	7.140261	44.044739
775.700000	7.136385	44.049018
775.800000	7.132503	44.053312
775.900000	7.128614	44.057621
776.000000	7.124719	44.061949
776.100000	7.120817	44.066294
776.200000	7.116908	44.070660
776.300000	7.112992	44.075046
776.400000	7.109070	44.079454
776.500000	7.105141	44.083879
776.600000	7.101204	44.088321
776.700000	7.097261	44.092779
776.800000	7.093311	44.097251
776.900000	7.089353	44.101736
777.000000	7.085388	44.106232
777.100000	7.081416	44.110738
777.200000	7.077437	44.115253
777.300000	7.073450	44.119775
777.400000	7.069455	44.124303
777.500000	7.065453	44.128835
777.600000	7.061444	44.133370
777.700000	7.057427	44.137906
777.800000	7.053401	44.142442
777.900000	7.049369	44.146977
778.000000	7.045328	44.151509
778.100000	7.041279	44.156037
778.200000	7.037222	44.160560
778.300000	7.033157	44.165075
778.400000	7.029084	44.169582
778.500000	7.025003	44.174083
778.600000	7.020914	44.178589
778.700000	7.016816	44.183103
778.800000	7.012709	44.187621
778.900000	7.008595	44.192143
779.000000	7.004471	44.196668
779.100000	7.000339	44.201195
779.200000	6.996204	44.205723
779.300000	6.992072	44.210252
779.400000	6.987942	44.214780
779.500000	6.983816	44.219305
779.600000	6.979692	44.223827
779.700000	6.975570	44.228346
779.800000	6.971450	44.232861
779.900000	6.967331	44.237369
780.000000	6.963213	44.241870
780.100000	6.959096	44.246364
780.200000	6.954980	44.250848
780.300000	6.950864	44.255322
780.400000	6.946747	44.259786
780.500000	6.942630	44.264238
780.600000	6.938512	44.268677
780.700000	6.934393	44.273103
780.800000	6.930273	44.277507
780.900000	6.926151	44.281887
781.000000	6.922027	44.286248
781.100000	6.917900	44.290590
781.200000	6.913771	44.294918
781.300000	6.909638	44.299231
781.400000	6.905502	44.303535
781.500000	6.901363	44.307830
781.600000	6.897219	44.312120
781.700000	6.893071	44.316407
781.800000	6.888919	44.320693
781.900000	6.884761	44.324981
782.000000	6.880598	44.329273
782.100000	6.876430	44.333572
782.200000	6.872255	44.337880
782.300000	6.868075	44.342199
782.400000	6.863887	44.346533
782.500000	6.859693	44.350883
782.600000	6.855492	44.355253
782.700000	6.851283	44.359644
782.800000	6.847066	44.364058
782.900000	6.842841	44.368499
783.000000	6.838607	44.372969
783.100000	6.834365	44.377465
783.200000	6.830114	44.381977
783.300000	6.825853	44.386506
783.400000	6.821582	44.391052
783.500000	6.817301	44.395613
783.600000	6.813009	44.400189
783.700000	6.808707	44.404780
783.800000	6.804394	44.409385
783.900000	6.800070	44.414003
784.000000	6.795733	44.418634
784.100000	6.791385	44.423277
784.200000	6.787024	44.427932
784.300000	6.782651	44.432599
784.400000	6.778265	44.437275
784.500000	6.773865	44.441963
784.600000	6.769452	44.446658
784.700000	6.765024	44.451363
784.800000	6.760583	44.456077
784.900000	6.756127	44.460798
785.000000	6.751655	44.465525
785.100000	6.747169	44.470261
785.200000	6.742667	44.475002
785.300000	6.738149	44.479758
785.400000	6.733615	44.484534
785.500000	6.729065	44.489329
785.600000	6.724498	44.494140
785.700000	6.719913	44.498966
785.800000	6.715311	44.503806
785.900000	6.710691	44.508657
786.000000	6.706053	44.513519
786.100000	6.701397	44.518388
786.200000	6.696722	44.523266
786.300000	6.692027	44.528147
786.400000	6.687314	44.533032
786.500000	6.682580	44.537919
786.600000	6.677827	44.542807
786.700000	6.673053	44.547693
786.800000	6.668258	44.552575
786.900000	6.663443	44.557454
787.000000	6.658606	44.562325
787.100000	6.653747	44.567190
787.200000	6.648867	44.572044
787.300000	6.643964	44.576889
787.400000	6.639039	44.581757
787.500000	6.634090	44.586654
787.600000	6.629119	44.591574
787.700000	6.624123	44.596513
787.800000	6.619104	44.601465
787.900000	6.614061	44.606424
788.000000	6.608993	44.611386
788.100000	6.603900	44.616345
788.200000	6.598782	44.621296
788.300000	6.593639	44.626234
788.400000	6.588470	44.631153
788.500000	6.583274	44.636047
788.600000	6.578052	44.640914
788.700000	6.572804	44.645746
788.800000	6.567528	44.650538
788.900000	6.562225	44.655285
789.000000	6.556894	44.659981
789.100000	6.551535	44.664623
789.200000	6.546147	44.669204
789.300000	6.540731	44.673718
789.400000	6.535286	44.678161
789.500000	6.529812	44.682527
789.600000	6.524308	44.686818
789.700000	6.518773	44.691043
789.800000	6.513209	44.695208
789.900000	6.507614	44.699318
790.000000	6.501988	44.703381
790.100000	6.496323	44.707403
790.200000	6.490591	44.711392
790.300000	6.484792	44.715352
790.400000	6.478927	44.719293
790.500000	6.472997	44.723219
790.600000	6.467003	44.727136
790.700000	6.460946	44.731052
790.800000	6.454828	44.734974
790.900000	6.448650	44.738907
791.000000	6.442413	44.742859
791.100000	6.436118	44.746836
791.200000	6.429767	44.750844
791.300000	6.423360	44.754890
791.400000	6.416899	44.758981
791.500000	6.410385	44.763123
791.600000	6.403820	44.767324
791.700000	6.397204	44.771588
791.800000	6.390538	44.775923
791.900000	6.383825	44.780333
792.000000	6.377064	44.784813
792.100000	6.370258	44.789357
792.200000	6.363408	44.793960
792.300000	6.356514	44.798616
792.400000	6.349578	44.803318
792.500000	6.342601	44.808061
792.600000	6.335585	44.812841
792.700000	6.328530	44.817649
792.800000	6.321438	44.822483
792.900000	6.314310	44.827334
793.000000	6.307147	44.832198
793.100000	6.299951	44.837070
793.200000	6.292722	44.841942
793.300000	6.285462	44.846811
793.400000	6.278171	44.851669
793.500000	6.270853	44.856512
793.600000	6.263506	44.861333
793.700000	6.256133	44.866128
793.800000	6.248735	44.870889
793.900000	6.241313	44.875613
794.000000	6.233869	44.880295
794.100000	6.226402	44.884976
794.200000	6.218916	44.889661
794.300000	6.211410	44.894351
794.400000	6.203887	44.899042
794.500000	6.196346	44.903732
794.600000	6.188791	44.908419
794.700000	6.181221	44.913101
794.800000	6.173638	44.917776
794.900000	6.166043	44.922443
795.000000	6.158437	44.927098
795.100000	6.150822	44.931739
795.200000	6.143198	44.936365
795.300000	6.135568	44.940974
795.400000	6.127932	44.945562
795.500000	6.120291	44.950128
795.600000	6.112647	44.954671
795.700000	6.105000	44.959188
795.800000	6.097353	44.963677
795.900000	6.089705	44.968135
796.000000	6.082059	44.972559
796.100000	6.074416	44.976951
796.200000	6.066777	44.981298
796.300000	6.059142	44.985528
796.400000	6.051514	44.989640
796.500000	6.043893	44.993646
796.600000	6.036281	44.997563
796.700000	6.028679	45.001403
796.800000	6.021088	45.005183
796.900000	6.013509	45.008919
797.000000	6.005944	45.012623
797.100000	5.998393	45.016312
797.200000	5.990865	45.020000
797.300000	5.983362	45.023703
797.400000	5.975881	45.027434
797.500000	5.968420	45.031210
797.600000	5.960977	45.035045
797.700000	5.953550	45.038954
797.800000	5.946138	45.042952
797.900000	5.938737	45.047054
798.000000	5.931347	45.051275
798.100000	5.923964	45.055629
798.200000	5.916587	45.060133
798.300000	5.909214	45.064799
798.400000	5.901843	45.069644
798.500000	5.894472	45.074684
798.600000	5.887099	45.079931
798.700000	5.879721	45.085554
798.800000	5.872337	45.091768
798.900000	5.864944	45.098490
799.000000	5.857541	45.105634
799.100000	5.850126	45.113112
799.200000	5.842696	45.120837
799.300000	5.835250	45.128725
799.400000	5.827785	45.136686
799.500000	5.820299	45.144634
799.600000	5.812790	45.152483
799.700000	5.805257	45.160146
799.800000	5.797697	45.167536
799.900000	5.790109	45.174566
800.000000	5.782489	45.181151
800.100000	5.774836	45.187366
800.200000	5.767149	45.193422
800.300000	5.759425	45.199334
800.400000	5.751661	45.205116
800.500000	5.743856	45.210781
800.600000	5.736009	45.216341
800.700000	5.728116	45.221813
800.800000	5.720176	45.227208
800.900000	5.712187	45.232541
801.000000	5.704146	45.237823
801.100000	5.696052	45.243070
801.200000	5.687903	45.248295
801.300000	5.679696	45.253511
801.400000	5.671430	45.258731
801.500000	5.663102	45.263970
801.600000	5.654710	45.269240
801.700000	5.646254	45.274557
801.800000	5.637729	45.279930
801.900000	5.629135	45.285364
802.000000	5.620469	45.290771
802.100000	5.611729	45.296143
802.200000	5.602913	45.301485
802.300000	5.594020	45.306805
802.400000	5.585047	45.312110
802.500000	5.575991	45.317406
802.600000	5.566852	45.322701
802.700000	5.557627	45.328000
802.800000	5.548314	45.333312
802.900000	5.538910	45.338641
803.000000	5.529414	45.343996
803.100000	5.519825	45.349384
803.200000	5.510138	45.354811
803.300000	5.500354	45.360284
803.400000	5.490573	45.365810
803.500000	5.480901	45.371395
803.600000	5.471320	45.377047
803.700000	5.461814	45.382772
803.800000	5.452363	45.388596
803.900000	5.442951	45.394548
804.000000	5.433558	45.400611
804.100000	5.424168	45.406769
804.200000	5.414762	45.413004
804.300000	5.405322	45.419299
804.400000	5.395831	45.425637
804.500000	5.386271	45.431999
804.600000	5.376622	45.438370
804.700000	5.366869	45.444730
804.800000	5.356992	45.451064
804.900000	5.346975	45.457353
805.000000	5.336798	45.463581
805.100000	5.326444	45.469729
805.200000	5.315895	45.475782
805.300000	5.305134	45.481720
805.400000	5.294142	45.487536
805.500000	5.282901	45.493290
805.600000	5.271394	45.498996
805.700000	5.259602	45.504658
805.800000	5.247509	45.510278
805.900000	5.235094	45.515855
806.000000	5.222342	45.521394
806.100000	5.209234	45.526896
806.200000	5.195751	45.532363
806.300000	5.181877	45.537797
806.400000	5.167593	45.543200
806.500000	5.152881	45.548575
806.600000	5.137723	45.553923
806.700000	5.122102	45.559246
806.800000	5.106000	45.564546
806.900000	5.089398	45.569825
807.000000	5.072279	45.575085
807.100000	5.054625	45.580329
807.200000	5.036417	45.585558
807.300000	5.017639	45.590748
807.400000	4.998249	45.595865
807.500000	4.974901	45.600920
807.600000	4.945634	45.605921
807.700000	4.911039	45.610876
807.800000	4.871707	45.615793
807.900000	4.828232	45.620681
808.000000	4.781205	45.625550
808.100000	4.731218	45.630407
808.200000	4.678863	45.635260
808.300000	4.624733	45.640120
808.400000	4.569418	45.644993
808.500000	4.513512	45.649890
808.600000	4.457607	45.654818
808.700000	4.402293	45.659785
808.800000	4.348165	45.664801
808.900000	4.295812	45.669874
809.000000	4.245829	45.675013
809.100000	4.198806	45.680226
809.200000	4.155335	45.685522
809.300000	4.116009	45.690904
809.400000	4.081420	45.696362
809.500000	4.052160	45.701887
809.600000	4.028821	45.707476
809.700000	4.011994	45.713123
809.800000	4.002273	45.718821
809.900000	4.026718	45.724566
810.000000	4.398221	45.730352
810.100000	4.492210	45.736174
810.200000	4.308916	45.742025
810.300000	3.633783	45.747902
810.400000	0.015246	45.753797
810.500000	0.539359	45.759706
810.600000	1.430900	45.765623
810.700000	2.311160	45.771541
810.800000	2.941007	45.777458
810.900000	3.177040	45.783365
811.000000	3.349908	45.789256
811.100000	3.461167	45.795026
811.200000	3.499985	45.800650
811.300000	3.402843	45.806166
811.400000	3.157972	45.811610
811.500000	2.827633	45.817017
811.600000	2.474086	45.822424
811.700000	2.159590	45.827866
811.800000	1.938850	45.833380
811.900000	1.751199	45.839000
812.000000	1.569131	45.844766
0.000000	0.000000	45.850711
0.000000	0.000000	45.856871
0.000000	0.000000	45.863284
0.000000	0.000000	45.869985
0.000000	0.000000	45.877010
0.000000	0.000000	45.884394
0.000000	0.000000	45.892252
0.000000	0.000000	45.901328
0.000000	0.000000	45.911545
0.000000	0.000000	45.922580
0.000000	0.000000	45.934115
0.000000	0.000000	45.945829
0.000000	0.000000	45.957399
0.000000	0.000000	45.968508
0.000000	0.000000	45.978831
0.000000	0.000000	45.988050
0.000000	0.000000	45.996143
0.000000	0.000000	46.003751
0.000000	0.000000	46.010966
0.000000	0.000000	46.017837
0.000000	0.000000	46.024418
0.000000	0.000000	46.030758
0.000000	0.000000	46.036911
0.000000	0.000000	46.042927
0.000000	0.000000	46.048861
0.000000	0.000000	46.054761
0.000000	0.000000	46.060682
0.000000	0.000000	46.066674
0.000000	0.000000	46.072789
0.000000	0.000000	46.079079
0.000000	0.000000	46.085597
0.000000	0.000000	46.092392
0.000000	0.000000	46.099411
0.000000	0.000000	46.106586
0.000000	0.000000	46.113890
0.000000	0.000000	46.121299
0.000000	0.000000	46.128785
0.000000	0.000000	46.136323
0.000000	0.000000	46.143886
0.000000	0.000000	46.151448
0.000000	0.000000	46.158982
0.000000	0.000000	46.166465
0.000000	0.000000	46.173867
0.000000	0.000000	46.181164
0.000000	0.000000	46.188330
0.000000	0.000000	46.195338
0.000000	0.000000	46.202184
0.000000	0.000000	46.208891
0.000000	0.000000	46.215485
0.000000	0.000000	46.221991
0.000000	0.000000	46.228436
0.000000	0.000000	46.234845
0.000000	0.000000	46.241244
0.000000	0.000000	46.247659
0.000000	0.000000	46.254114
0.000000	0.000000	46.260636
0.000000	0.000000	46.267250
0.000000	0.000000	46.273982
0.000000	0.000000	46.280858
0.000000	0.000000	46.287904
0.000000	0.000000	46.295144
0.000000	0.000000	46.302598
0.000000	0.000000	46.310246
0.000000	0.000000	46.318061
0.000000	0.000000	46.326019
0.000000	0.000000	46.334092
0.000000	0.000000	46.342254
0.000000	0.000000	46.350480
0.000000	0.000000	46.358743
0.000000	0.000000	46.367017
0.000000	0.000000	46.375276
0.000000	0.000000	46.383493
0.000000	0.000000	46.391643
0.000000	0.000000	46.399675
0.000000	0.000000	46.407509
0.000000	0.000000	46.415197
0.000000	0.000000	46.422799
0.000000	0.000000	46.430377
0.000000	0.000000	46.437993
0.000000	0.000000	46.445704
0.000000	0.000000	46.453573
0.000000	0.000000	46.461662
0.000000	0.000000	46.470030
0.000000	0.000000	46.478738
0.000000	0.000000	46.487848
0.000000	0.000000	46.497437
0.000000	0.000000	46.508150
0.000000	0.000000	46.520001
0.000000	0.000000	46.532601
0.000000	0.000000	46.545556
0.000000	0.000000	46.558478
0.000000	0.000000	46.570974
0.000000	0.000000	46.582653
0.000000	0.000000	46.593126
0.000000	0.000000	46.602187
0.000000	0.000000	46.610384
0.000000	0.000000	46.617905
0.000000	0.000000	46.624881
0.000000	0.000000	46.631442
0.000000	0.000000	46.637719
0.000000	0.000000	46.643843
0.000000	0.000000	46.649943
0.000000	0.000000	46.656149
0.000000	0.000000	46.662593
0.000000	0.000000	46.669405
0.000000	0.000000	46.676714
0.000000	0.000000	46.684653
0.000000	0.000000	46.693350
0.000000	0.000000	46.703201
0.000000	0.000000	46.715399
0.000000	0.000000	46.729377
0.000000	0.000000	46.744319
0.000000	0.000000	46.759409
0.000000	0.000000	46.773832
0.000000	0.000000	46.786770
0.000000	0.000000	46.797410
0.000000	0.000000	46.805887
0.000000	0.000000	46.813614
0.000000	0.000000	46.820705
0.000000	0.000000	46.827247
0.000000	0.000000	46.833327
0.000000	0.000000	46.839032
0.000000	0.000000	46.844445
0.000000	0.000000	46.849654
0.000000	0.000000	46.854745
0.000000	0.000000	46.859803
0.000000	0.000000	46.864916
0.000000	0.000000	46.870170
0.000000	0.000000	46.875649
0.000000	0.000000	46.881441
0.000000	0.000000	46.887631
0.000000	0.000000	46.894306
0.000000	0.000000	46.901543
0.000000	0.000000	46.909166
0.000000	0.000000	46.917081
0.000000	0.000000	46.925301
0.000000	0.000000	46.933836
0.000000	0.000000	46.942698
0.000000	0.000000	46.951897
0.000000	0.000000	46.961445
0.000000	0.000000	46.971353
0.000000	0.000000	46.981632
0.000000	0.000000	46.992292
0.000000	0.000000	47.003367
0.000000	0.000000	47.015437
0.000000	0.000000	47.028556
0.000000	0.000000	47.042451
0.000000	0.000000	47.056848
0.000000	0.000000	47.071474
0.000000	0.000000	47.086054
0.000000	0.000000	47.100316
0.000000	0.000000	47.113614
0.000000	0.000000	47.125729
0.000000	0.000000	47.137467
0.000000	0.000000	47.149647
0.000000	0.000000	47.163086
0.000000	0.000000	47.178602
0.000000	0.000000	47.197012
0.000000	0.000000	47.223910
0.000000	0.000000	47.263960
0.000000	0.000000	47.298974
0.000000	0.000000	47.318689
0.000000	0.000000	47.334640
0.000000	0.000000	47.348134
0.000000	0.000000	47.359887
0.000000	0.000000	47.370613
0.000000	0.000000	47.381026
0.000000	0.000000	47.391842
0.000000	0.000000	47.403775
0.000000	0.000000	47.416478
0.000000	0.000000	47.428768
0.000000	0.000000	47.440906
0.000000	0.000000	47.453164
0.000000	0.000000	47.465818
0.000000	0.000000	47.479140
0.000000	0.000000	47.493407
0.000000	0.000000	47.508943
0.000000	0.000000	47.527976
0.000000	0.000000	47.549817
0.000000	0.000000	47.572030
0.000000	0.000000	47.592185
0.000000	0.000000	47.607851
0.000000	0.000000	47.620627
0.000000	0.000000	47.633151
0.000000	0.000000	47.645262
0.000000	0.000000	47.656798
0.000000	0.000000	47.667595
0.000000	0.000000	47.677494
0.000000	0.000000	47.686331
0.000000	0.000000	47.693946
