Dividing Wavelength (nm)	Blue Motor Position (mm)	Red Motor Position (mm)	
355.000000	50.000000	3.036400
355.100000	49.996733	3.046507
355.200000	49.993149	3.056614
355.300000	49.989255	3.066720
355.400000	49.985054	3.076827
355.500000	49.980553	3.086934
355.600000	49.975756	3.097041
355.700000	49.970669	3.107148
355.800000	49.965298	3.117254
355.900000	49.959647	3.127361
356.000000	49.953722	3.137468
356.100000	49.947527	3.147575
356.200000	49.941070	3.157682
356.300000	49.934354	3.167788
356.400000	49.927385	3.177895
356.500000	49.920168	3.188002
356.600000	49.912709	3.198109
356.700000	49.905013	3.208216
356.800000	49.897085	3.218322
356.900000	49.888930	3.228429
357.000000	49.880554	3.238536
357.100000	49.871962	3.248643
357.200000	49.863160	3.258750
357.300000	49.854152	3.268856
357.400000	49.844944	3.278963
357.500000	49.835541	3.289070
357.600000	49.825949	3.299177
357.700000	49.816172	3.309284
357.800000	49.806217	3.319390
357.900000	49.796088	3.329497
358.000000	49.785790	3.339604
358.100000	49.775330	3.349711
358.200000	49.764712	3.359818
358.300000	49.753941	3.369924
358.400000	49.743023	3.380031
358.500000	49.731964	3.390138
358.600000	49.720768	3.400245
358.700000	49.709440	3.410352
358.800000	49.697987	3.420458
358.900000	49.686412	3.430565
359.000000	49.674723	3.440672
359.100000	49.662923	3.450779
359.200000	49.651019	3.460886
359.300000	49.639015	3.470992
359.400000	49.626916	3.481099
359.500000	49.614729	3.491206
359.600000	49.602458	3.501313
359.700000	49.590109	3.511420
359.800000	49.577687	3.521526
359.900000	49.565197	3.531633
360.000000	49.552645	3.541740
360.100000	49.540035	3.551847
360.200000	49.527373	3.561954
360.300000	49.514665	3.572060
360.400000	49.501916	3.582167
360.500000	49.488837	3.592274
360.600000	49.474950	3.602381
360.700000	49.460295	3.612488
360.800000	49.444919	3.622594
360.900000	49.428873	3.632701
361.000000	49.412205	3.642808
361.100000	49.394964	3.652915
361.200000	49.377199	3.663022
361.300000	49.358958	3.673128
361.400000	49.340291	3.683235
361.500000	49.321246	3.693342
361.600000	49.301873	3.703449
361.700000	49.282220	3.713556
361.800000	49.262336	3.723662
361.900000	49.242271	3.733769
362.000000	49.222072	3.743876
362.100000	49.201789	3.753983
362.200000	49.181470	3.764090
362.300000	49.161166	3.774196
362.400000	49.140923	3.784303
362.500000	49.120792	3.794410
362.600000	49.100822	3.804517
362.700000	49.081060	3.814624
362.800000	49.061556	3.824730
362.900000	49.042360	3.834837
363.000000	49.023519	3.844944
363.100000	49.005083	3.855051
363.200000	48.986950	3.865158
363.300000	48.968746	3.875264
363.400000	48.950462	3.885371
363.500000	48.932111	3.895478
363.600000	48.913706	3.905585
363.700000	48.895263	3.915692
363.800000	48.876793	3.925798
363.900000	48.858310	3.935905
364.000000	48.839829	3.946012
364.100000	48.821362	3.955396
364.200000	48.802924	3.963654
364.300000	48.784527	3.971271
364.400000	48.766186	3.978726
364.500000	48.747913	3.986503
364.600000	48.729723	3.995084
364.700000	48.711628	4.004949
364.800000	48.693643	4.016582
364.900000	48.675781	4.030465
365.000000	48.658055	4.047080
365.100000	48.640480	4.083718
365.200000	48.623068	4.131077
365.300000	48.605833	4.154306
365.400000	48.588790	4.168103
365.500000	48.571950	4.180119
365.600000	48.555328	4.190563
365.700000	48.538938	4.199643
365.800000	48.522792	4.207570
365.900000	48.506905	4.214550
366.000000	48.491291	4.220794
366.100000	48.475959	4.226510
366.200000	48.460894	4.231907
366.300000	48.446080	4.237195
366.400000	48.431501	4.242581
366.500000	48.417141	4.248274
366.600000	48.402985	4.254026
366.700000	48.389016	4.259150
366.800000	48.375218	4.263710
366.900000	48.361575	4.267788
367.000000	48.348071	4.271461
367.100000	48.334691	4.274808
367.200000	48.321418	4.277911
367.300000	48.308236	4.280848
367.400000	48.295129	4.283699
367.500000	48.282082	4.286542
367.600000	48.269078	4.289459
367.700000	48.256101	4.292527
367.800000	48.243136	4.295827
367.900000	48.230166	4.299438
368.000000	48.217175	4.303439
368.100000	48.204147	4.307910
368.200000	48.191067	4.312930
368.300000	48.177918	4.318580
368.400000	48.164685	4.324937
368.500000	48.151351	4.332083
368.600000	48.137900	4.340095
368.700000	48.124316	4.349055
368.800000	48.110584	4.368876
368.900000	48.096687	4.404796
369.000000	48.082610	4.438783
369.100000	48.068336	4.454361
369.200000	48.053849	4.462668
369.300000	48.039134	4.469884
369.400000	48.024174	4.476113
369.500000	48.008954	4.481460
369.600000	47.993479	4.486032
369.700000	47.977922	4.489934
369.800000	47.962314	4.493270
369.900000	47.946645	4.496146
370.000000	47.930904	4.498668
370.100000	47.915080	4.500940
370.200000	47.899162	4.503070
370.300000	47.883140	4.505160
370.400000	47.867002	4.507317
370.500000	47.850739	4.509647
370.600000	47.834339	4.512254
370.700000	47.817792	4.515244
370.800000	47.801087	4.518722
370.900000	47.784213	4.522795
371.000000	47.767159	4.527565
371.100000	47.749916	4.533141
371.200000	47.732471	4.539626
371.300000	47.714814	4.547126
371.400000	47.696936	4.556818
371.500000	47.678823	4.577850
371.600000	47.660467	4.606176
371.700000	47.641857	4.634130
371.800000	47.622981	4.654059
371.900000	47.603829	4.666970
372.000000	47.584390	4.678130
372.100000	47.564653	4.687864
372.200000	47.544609	4.696502
372.300000	47.524245	4.704366
372.400000	47.503551	4.711786
372.500000	47.482217	4.719087
372.600000	47.459748	4.726598
372.700000	47.436252	4.734643
372.800000	47.411852	4.743549
372.900000	47.386670	4.753643
373.000000	47.360828	4.765142
373.100000	47.334449	4.777811
373.200000	47.307655	4.791312
373.300000	47.280568	4.805311
373.400000	47.253311	4.819470
373.500000	47.226005	4.833452
373.600000	47.198774	4.846919
373.700000	47.171738	4.859487
373.800000	47.145022	4.870422
373.900000	47.118746	4.880105
374.000000	47.093034	4.889216
374.100000	47.068007	4.898435
374.200000	47.043788	4.908445
374.300000	47.020499	4.919924
374.400000	46.998261	4.933556
374.500000	46.976912	4.950018
374.600000	46.956233	4.975615
374.700000	46.936168	5.018641
374.800000	46.916658	5.055096
374.900000	46.897645	5.074178
375.000000	46.879071	5.089704
375.100000	46.860877	5.102673
375.200000	46.843006	5.113869
375.300000	46.825399	5.124076
375.400000	46.807998	5.134076
375.500000	46.790746	5.144655
375.600000	46.773583	5.156593
375.700000	46.756451	5.169938
375.800000	46.739293	5.183624
375.900000	46.722050	5.197557
376.000000	46.704665	5.211673
376.100000	46.687078	5.225908
376.200000	46.669233	5.240196
376.300000	46.651070	5.254473
376.400000	46.632531	5.268765
376.500000	46.613559	5.283324
376.600000	46.594095	5.298042
376.700000	46.574081	5.312779
376.800000	46.553459	5.327389
376.900000	46.532170	5.341731
377.000000	46.510158	5.355660
377.100000	46.487349	5.369153
377.200000	46.463672	5.382554
377.300000	46.439170	5.395826
377.400000	46.413904	5.408885
377.500000	46.387930	5.421646
377.600000	46.361308	5.434023
377.700000	46.334096	5.445932
377.800000	46.306353	5.457287
377.900000	46.278135	5.467862
378.000000	46.249503	5.477099
378.100000	46.220514	5.485282
378.200000	46.191227	5.492789
378.300000	46.161700	5.500004
378.400000	46.131991	5.507306
378.500000	46.102159	5.515077
378.600000	46.072262	5.523697
378.700000	46.042359	5.533548
378.800000	46.012508	5.545010
378.900000	45.982549	5.558465
379.000000	45.951628	5.577383
379.100000	45.919802	5.607161
379.200000	45.887244	5.640009
379.300000	45.854129	5.667455
379.400000	45.820631	5.688330
379.500000	45.786925	5.706505
379.600000	45.753185	5.724171
379.700000	45.719585	5.743515
379.800000	45.686300	5.766744
379.900000	45.653504	5.799243
380.000000	45.621371	5.836479
380.100000	45.590076	5.867448
380.200000	45.559793	5.890926
380.300000	45.530696	5.911968
380.400000	45.502960	5.930874
380.500000	45.476543	5.947950
380.600000	45.451129	5.963498
380.700000	45.426618	5.977654
380.800000	45.402911	5.990317
380.900000	45.379908	6.001828
381.000000	45.357511	6.012546
381.100000	45.335622	6.022834
381.200000	45.314142	6.033052
381.300000	45.292972	6.043563
381.400000	45.272013	6.054727
381.500000	45.251167	6.066906
381.600000	45.230335	6.079205
381.700000	45.209418	6.090485
381.800000	45.188318	6.101865
381.900000	45.166935	6.114488
382.000000	45.145172	6.129494
382.100000	45.122929	6.148028
382.200000	45.100108	6.171399
382.300000	45.076610	6.226277
382.400000	45.052336	6.272161
382.500000	45.027188	6.289496
382.600000	45.001066	6.303225
382.700000	44.973642	6.314088
382.800000	44.944739	6.322822
382.900000	44.914556	6.330168
383.000000	44.883297	6.336864
383.100000	44.851162	6.343652
383.200000	44.818352	6.351270
383.300000	44.785070	6.360457
383.400000	44.751517	6.371952
383.500000	44.717894	6.386156
383.600000	44.684402	6.402448
383.700000	44.651244	6.420024
383.800000	44.618620	6.438086
383.900000	44.586732	6.455832
384.000000	44.555781	6.472459
384.100000	44.525969	6.487353
384.200000	44.497495	6.500957
384.300000	44.470110	6.514075
384.400000	44.443490	6.527510
384.500000	44.417555	6.542063
384.600000	44.392224	6.558537
384.700000	44.367413	6.577825
384.800000	44.343043	6.602939
384.900000	44.319031	6.632614
385.000000	44.295297	6.663559
385.100000	44.271758	6.694474
385.200000	44.248334	6.728295
385.300000	44.224942	6.759580
385.400000	44.201501	6.782651
385.500000	44.177930	6.800528
385.600000	44.154148	6.815775
385.700000	44.130072	6.829301
385.800000	44.105622	6.842013
385.900000	44.080716	6.854821
386.000000	44.055272	6.868632
386.100000	44.029209	6.884159
386.200000	44.002446	6.900512
386.300000	43.974719	6.917341
386.400000	43.945848	6.934539
386.500000	43.916006	6.951995
386.600000	43.885369	6.969599
386.700000	43.854111	6.987034
386.800000	43.822407	7.003494
386.900000	43.790433	7.019837
387.000000	43.758365	7.037136
387.100000	43.726376	7.056474
387.200000	43.694643	7.078925
387.300000	43.663341	7.110042
387.400000	43.632645	7.147418
387.500000	43.602729	7.179874
387.600000	43.573770	7.204553
387.700000	43.545942	7.226691
387.800000	43.519421	7.246781
387.900000	43.494377	7.265313
388.000000	43.470805	7.282756
388.100000	43.448549	7.296443
388.200000	43.427468	7.306122
388.300000	43.407421	7.314379
388.400000	43.388267	7.323800
388.500000	43.369864	7.336973
388.600000	43.352071	7.356485
388.700000	43.334747	7.386975
388.800000	43.317750	7.490772
388.900000	43.300939	7.511368
389.000000	43.284174	7.525380
389.100000	43.267312	7.534611
389.200000	43.250212	7.540864
389.300000	43.232734	7.545939
389.400000	43.214736	7.551638
389.500000	43.196076	7.559763
389.600000	43.176613	7.572116
389.700000	43.156207	7.591928
389.800000	43.134715	7.635342
389.900000	43.111997	7.680321
390.000000	43.087911	7.707221
390.100000	43.062316	7.728404
390.200000	43.035071	7.746955
390.300000	43.006035	7.765583
390.400000	42.972274	7.786994
390.500000	42.928716	7.801550
390.600000	42.876559	7.812687
390.700000	42.817185	7.841220
390.800000	42.751977	7.992652
390.900000	42.682319	8.008157
391.000000	42.609594	8.020668
391.100000	42.535184	8.030546
391.200000	42.460473	8.038147
391.300000	42.386844	8.043832
391.400000	42.315679	8.047961
391.500000	42.248362	8.050891
391.600000	42.186276	8.052983
391.700000	42.130803	8.054595
391.800000	42.083327	8.056087
391.900000	42.045231	8.057817
392.000000	42.017898	8.060146
392.100000	42.002710	8.063431
392.200000	42.000638	8.068034
392.300000	42.008101	8.074311
392.400000	42.023172	8.082623
392.500000	42.044870	8.093736
392.600000	42.072218	8.113276
392.700000	42.104235	8.140525
392.800000	42.139943	8.172349
392.900000	42.178364	8.208746
393.000000	42.218517	8.259028
393.100000	42.259424	8.294526
393.200000	42.300106	8.311690
393.300000	42.339584	8.323154
393.400000	42.376878	8.331120
393.500000	42.411011	8.337790
393.600000	42.441002	8.345362
393.700000	42.465872	8.356038
393.800000	42.484643	8.372021
393.900000	42.496336	8.396578
394.000000	42.499670	8.490931
394.100000	42.444490	8.533313
394.200000	42.311087	8.563564
394.300000	42.123015	8.586189
394.400000	41.903826	8.604766
394.500000	41.677074	8.619410
394.600000	41.462775	8.631123
394.700000	41.183918	8.641206
394.800000	40.998218	8.650964
394.900000	40.942213	8.661703
395.000000	40.892446	8.674727
395.100000	40.848404	8.691341
395.200000	40.809576	8.716479
395.300000	40.775449	8.753357
395.400000	40.745511	8.790174
395.500000	40.719250	8.820015
395.600000	40.696154	8.848461
395.700000	40.675712	8.874261
395.800000	40.657409	8.895783
395.900000	40.640735	8.912545
396.000000	40.625178	8.926340
396.100000	40.610225	8.938160
396.200000	40.595364	8.948978
396.300000	40.580083	8.959766
396.400000	40.563870	8.971496
396.500000	40.546213	8.985140
396.600000	40.526599	9.001685
396.700000	40.504517	9.022766
396.800000	40.480597	9.047889
396.900000	40.456877	9.075485
397.000000	40.433402	9.104038
397.100000	40.410156	9.135935
397.200000	40.387123	9.169908
397.300000	40.364289	9.201404
397.400000	40.341637	9.229086
397.500000	40.319153	9.255038
397.600000	40.296820	9.279775
397.700000	40.274624	9.303807
397.800000	40.252549	9.326648
397.900000	40.230580	9.348325
398.000000	40.208701	9.369832
398.100000	40.186897	9.392163
398.200000	40.165152	9.416474
398.300000	40.143451	9.443398
398.400000	40.121779	9.470842
398.500000	40.100120	9.496430
398.600000	40.078458	9.518091
398.700000	40.056779	9.536438
398.800000	40.035066	9.553345
398.900000	40.013305	9.570684
399.000000	39.991463	9.590321
399.100000	39.969389	9.614617
399.200000	39.947080	9.648483
399.300000	39.924581	9.684519
399.400000	39.901933	9.712552
399.500000	39.879178	9.731835
399.600000	39.856360	9.747052
399.700000	39.833522	9.761648
399.800000	39.810705	9.779061
399.900000	39.787952	9.802735
400.000000	39.765306	9.849530
400.100000	39.742810	9.905590
400.200000	39.720505	9.931767
400.300000	39.698435	9.951064
400.400000	39.676642	9.966450
400.500000	39.655169	9.980554
400.600000	39.634058	9.996010
400.700000	39.613351	10.015299
400.800000	39.593093	10.037132
400.900000	39.573324	10.060599
401.000000	39.554088	10.085921
401.100000	39.535427	10.113347
401.200000	39.517383	10.146760
401.300000	39.500000	10.182978
401.400000	39.483456	10.213614
401.500000	39.467857	10.237389
401.600000	39.453132	10.258318
401.700000	39.439214	10.277463
401.800000	39.426032	10.295890
401.900000	39.413517	10.314648
402.000000	39.401602	10.331742
402.100000	39.390215	10.346732
402.200000	39.379289	10.361851
402.300000	39.368754	10.379330
402.400000	39.358540	10.401399
402.500000	39.348580	10.433933
402.600000	39.338803	10.487354
402.700000	39.329141	10.540661
402.800000	39.319524	10.594140
402.900000	39.309883	10.631308
403.000000	39.300150	10.658634
403.100000	39.290254	10.681419
403.200000	39.280127	10.702137
403.300000	39.269700	10.723138
403.400000	39.258904	10.743832
403.500000	39.247669	10.763608
403.600000	39.235926	10.782608
403.700000	39.223607	10.800974
403.800000	39.210641	10.818848
403.900000	39.196961	10.834428
404.000000	39.182496	10.847328
404.100000	39.167178	10.859651
404.200000	39.150937	10.873501
404.300000	39.133705	10.890979
404.400000	39.115412	10.914189
404.500000	39.095989	10.964955
404.600000	39.075367	11.022323
404.700000	39.053477	11.045675
404.800000	39.030249	11.061966
404.900000	39.005615	11.074318
405.000000	38.974458	11.085854
405.100000	38.927704	11.099696
405.200000	38.868906	11.118967
405.300000	38.802050	11.151869
405.400000	38.731119	11.195142
405.500000	38.660101	11.228074
405.600000	38.592981	11.250621
405.700000	38.533744	11.269514
405.800000	38.485703	11.286339
405.900000	38.442217	11.302684
406.000000	38.400462	11.320136
406.100000	38.360339	11.339300
406.200000	38.321750	11.358789
406.300000	38.284596	11.378441
406.400000	38.248780	11.398141
406.500000	38.214202	11.417778
406.600000	38.180765	11.436820
406.700000	38.148369	11.454326
406.800000	38.116917	11.471645
406.900000	38.086311	11.490315
407.000000	38.056451	11.511868
407.100000	38.027240	11.537345
407.200000	37.998579	11.567068
407.300000	37.970653	11.609602
407.400000	37.943617	11.706078
407.500000	37.917401	11.769670
407.600000	37.891937	11.818778
407.700000	37.867155	11.860273
407.800000	37.842987	11.893104
407.900000	37.819365	11.916219
408.000000	37.796218	11.928565
408.100000	37.773479	11.897013
408.200000	37.751078	11.830972
408.300000	37.728947	11.860404
408.400000	37.707016	11.913299
408.500000	37.685217	11.972188
408.600000	37.663480	12.019595
408.700000	37.641738	12.044256
408.800000	37.619920	12.062278
408.900000	37.597959	12.077154
409.000000	37.575784	12.090097
409.100000	37.553328	12.102317
409.200000	37.530522	12.115027
409.300000	37.507296	12.129440
409.400000	37.483568	12.143477
409.500000	37.459299	12.153466
409.600000	37.434568	12.163623
409.700000	37.409458	12.178365
409.800000	37.384053	12.202115
409.900000	37.358435	12.253794
410.000000	37.332689	12.355734
410.100000	37.306898	12.378751
410.200000	37.281144	12.393324
410.300000	37.255512	12.402651
410.400000	37.230085	12.409931
410.500000	37.204946	12.418364
410.600000	37.180178	12.431148
410.700000	37.155866	12.449741
410.800000	37.132092	12.471016
410.900000	37.108939	12.494380
411.000000	37.086492	12.519428
411.100000	37.064833	12.546122
411.200000	37.044047	12.577398
411.300000	37.024215	12.610096
411.400000	37.005423	12.639297
411.500000	36.987630	12.663330
411.600000	36.970507	12.684807
411.700000	36.953997	12.705802
411.800000	36.938062	12.728390
411.900000	36.922664	12.754871
412.000000	36.907768	12.785708
412.100000	36.893335	12.816945
412.200000	36.879328	12.844374
412.300000	36.865710	12.867387
412.400000	36.852444	12.888240
412.500000	36.839492	12.908666
412.600000	36.826817	12.930397
412.700000	36.814383	12.955276
412.800000	36.802152	12.983658
412.900000	36.790086	13.012730
413.000000	36.778148	13.039445
413.100000	36.766301	13.061387
413.200000	36.754509	13.079986
413.300000	36.742733	13.098095
413.400000	36.730936	13.118574
413.500000	36.719082	13.144289
413.600000	36.707133	13.183306
413.700000	36.695051	13.229202
413.800000	36.682800	13.269649
413.900000	36.670343	13.309003
414.000000	36.657641	13.340828
414.100000	36.644658	13.360728
414.200000	36.631357	13.373677
414.300000	36.617700	13.383047
414.400000	36.603650	13.392085
414.500000	36.589170	13.404041
414.600000	36.574223	13.422165
414.700000	36.558771	13.451486
414.800000	36.542777	13.551922
414.900000	36.526205	13.588041
415.000000	36.509016	13.612679
415.100000	36.491261	13.631208
415.200000	36.473434	13.648997
415.300000	36.455545	13.666213
415.400000	36.437506	13.680684
415.500000	36.419229	13.693673
415.600000	36.400627	13.706440
415.700000	36.381613	13.720246
415.800000	36.362098	13.736352
415.900000	36.341995	13.756166
416.000000	36.321216	13.782095
416.100000	36.299674	13.812474
416.200000	36.277282	13.844530
416.300000	36.253951	13.876700
416.400000	36.229594	13.910821
416.500000	36.204124	13.948146
416.600000	36.177453	13.997632
416.700000	36.149493	14.059792
416.800000	36.120157	14.116806
416.900000	36.089356	14.150754
417.000000	36.057005	14.075931
417.100000	36.023014	14.178759
417.200000	35.986360	14.254927
417.300000	35.936666	14.273359
417.400000	35.873167	14.286606
417.500000	35.798525	14.295950
417.600000	35.715402	14.302678
417.700000	35.626460	14.308074
417.800000	35.534358	14.313424
417.900000	35.441758	14.320012
418.000000	35.351322	14.329121
418.100000	35.265711	14.342038
418.200000	35.187586	14.361340
418.300000	35.119608	14.422938
418.400000	35.064439	14.516431
418.500000	35.024740	14.606258
418.600000	35.003171	14.656862
418.700000	35.006887	14.492818
418.800000	35.062061	14.649410
418.900000	35.155425	14.761509
419.000000	35.266392	14.790065
419.100000	35.374374	14.810308
419.200000	35.458783	14.825202
419.300000	35.499031	14.837712
419.400000	35.499444	14.850802
419.500000	35.497321	14.867262
419.600000	35.493647	14.886669
419.700000	35.488460	14.907874
419.800000	35.481800	14.930166
419.900000	35.473707	14.952839
420.000000	35.464221	14.975183
420.100000	35.453380	14.996490
420.200000	35.441224	15.016053
420.300000	35.427793	15.033160
420.400000	35.413126	15.047107
420.500000	35.397262	15.057182
420.600000	35.380241	15.062677
420.700000	35.362103	15.021119
420.800000	35.342887	14.964596
420.900000	35.322632	14.984212
421.000000	35.301378	15.019076
421.100000	35.279164	15.062864
421.200000	35.256030	15.109253
421.300000	35.232015	15.151920
421.400000	35.207159	15.188245
421.500000	35.181501	15.225029
421.600000	35.155080	15.258410
421.700000	35.127937	15.284930
421.800000	35.100110	15.307009
421.900000	35.071638	15.327496
422.000000	35.042563	15.349160
422.100000	35.012922	15.374399
422.200000	34.982756	15.400685
422.300000	34.952103	15.431434
422.400000	34.921003	15.473111
422.500000	34.889497	15.555408
422.600000	34.857622	15.584794
422.700000	34.825419	15.600681
422.800000	34.792927	15.611122
422.900000	34.760186	15.618346
423.000000	34.727234	15.624588
423.100000	34.694113	15.632076
423.200000	34.660860	15.643044
423.300000	34.627515	15.659720
423.400000	34.594118	15.699519
423.500000	34.560709	15.799864
423.600000	34.527326	15.870492
423.700000	34.493850	15.775865
423.800000	34.454402	15.793440
423.900000	34.407488	15.820487
424.000000	34.355154	15.853511
424.100000	34.299444	15.889020
424.200000	34.242404	15.923523
424.300000	34.186079	15.953526
424.400000	34.132515	15.975603
424.500000	34.083756	15.991600
424.600000	34.041847	16.004811
424.700000	34.008835	16.016544
424.800000	33.984397	16.028108
424.900000	33.961748	16.040811
425.000000	33.940243	16.055963
425.100000	33.919825	16.074879
425.200000	33.900437	16.105769
425.300000	33.882021	16.144377
425.400000	33.864522	16.175111
425.500000	33.847882	16.193671
425.600000	33.832044	16.207681
425.700000	33.816951	16.219132
425.800000	33.802546	16.230014
425.900000	33.788772	16.242317
426.000000	33.775572	16.258031
426.100000	33.762889	16.279420
426.200000	33.750666	16.326471
426.300000	33.738847	16.392418
426.400000	33.727373	16.451612
426.500000	33.716189	16.478408
426.600000	33.705237	16.436136
426.700000	33.694460	16.379826
426.800000	33.683801	16.389107
426.900000	33.673204	16.429374
427.000000	33.662611	16.485167
427.100000	33.651965	16.542634
427.200000	33.641209	16.588084
427.300000	33.630287	16.620003
427.400000	33.619140	16.655777
427.500000	33.607714	16.733032
427.600000	33.595949	16.792857
427.700000	33.583790	16.812221
427.800000	33.571179	16.825906
427.900000	33.558060	16.835538
428.000000	33.544375	16.842748
428.100000	33.530067	16.849159
428.200000	33.515080	16.856401
428.300000	33.499358	16.866100
428.400000	33.483730	16.879884
428.500000	33.468857	16.900510
428.600000	33.454621	16.928295
428.700000	33.440904	16.958860
428.800000	33.427588	16.987813
428.900000	33.414555	17.015107
429.000000	33.401688	17.042382
429.100000	33.388868	17.069881
429.200000	33.375978	17.098294
429.300000	33.362899	17.129360
429.400000	33.349515	17.159504
429.500000	33.335706	17.184317
429.600000	33.321355	17.202636
429.700000	33.306344	17.217822
429.800000	33.290556	17.230996
429.900000	33.273872	17.243262
430.000000	33.256175	17.255724
430.100000	33.237346	17.269484
430.200000	33.217268	17.285648
430.300000	33.195823	17.302963
430.400000	33.172892	17.320703
430.500000	33.148359	17.342073
430.600000	33.122105	17.370294
430.700000	33.094013	17.423080
430.800000	33.063964	17.491189
430.900000	33.031840	17.507540
431.000000	32.997415	17.518461
431.100000	32.938446	17.525270
431.200000	32.848878	17.529282
431.300000	32.744080	17.531812
431.400000	32.639424	17.534176
431.500000	32.550281	17.537688
431.600000	32.491274	17.543666
431.700000	32.447071	17.553423
431.800000	32.405647	17.568277
431.900000	32.366842	17.589542
432.000000	32.330500	17.725136
432.100000	32.296464	17.754855
432.200000	32.264574	17.770634
432.300000	32.234673	17.787020
432.400000	32.206603	17.812536
432.500000	32.180207	17.839364
432.600000	32.155327	17.864994
432.700000	32.131804	17.887294
432.800000	32.109482	17.904592
432.900000	32.088202	17.917918
433.000000	32.067806	17.928836
433.100000	32.048136	17.938873
433.200000	32.029035	17.949553
433.300000	32.010346	17.962402
433.400000	31.991952	17.978946
433.500000	31.974073	18.002206
433.600000	31.956750	18.051497
433.700000	31.939959	18.096353
433.800000	31.923677	18.121075
433.900000	31.907882	18.140487
434.000000	31.892550	18.157008
434.100000	31.877660	18.173051
434.200000	31.863187	18.191035
434.300000	31.849110	18.213004
434.400000	31.835405	18.237890
434.500000	31.822050	18.263082
434.600000	31.809022	18.285955
434.700000	31.796298	18.304213
434.800000	31.783855	18.319423
434.900000	31.771670	18.332822
435.000000	31.759721	18.345055
435.100000	31.747985	18.356762
435.200000	31.736438	18.368588
435.300000	31.725058	18.381178
435.400000	31.713823	18.395173
435.500000	31.702709	18.408353
435.600000	31.691694	18.417069
435.700000	31.680755	18.426212
435.800000	31.669868	18.440986
435.900000	31.659012	18.466594
436.000000	31.648163	18.574333
436.100000	31.637299	18.632376
436.200000	31.626396	18.653697
436.300000	31.615432	18.665773
436.400000	31.604384	18.673131
436.500000	31.593229	18.680295
436.600000	31.581945	18.691795
436.700000	31.570508	18.712067
436.800000	31.558897	18.741203
436.900000	31.547087	18.773247
437.000000	31.535056	18.801810
437.100000	31.522781	18.825494
437.200000	31.510240	18.847822
437.300000	31.497420	18.868532
437.400000	31.484649	18.887358
437.500000	31.472077	18.904030
437.600000	31.459686	18.918247
437.700000	31.447458	18.930365
437.800000	31.435375	18.941093
437.900000	31.423418	18.951144
438.000000	31.411570	18.961231
438.100000	31.399813	18.972063
438.200000	31.388127	18.984354
438.300000	31.376497	18.998814
438.400000	31.364902	19.017118
438.500000	31.353325	19.041755
438.600000	31.341748	19.069332
438.700000	31.330153	19.095958
438.800000	31.318522	19.118932
438.900000	31.306836	19.141200
439.000000	31.295077	19.162648
439.100000	31.283228	19.182566
439.200000	31.271270	19.200245
439.300000	31.259185	19.215183
439.400000	31.246955	19.228166
439.500000	31.234562	19.239732
439.600000	31.221987	19.250319
439.700000	31.209213	19.260364
439.800000	31.196222	19.270303
439.900000	31.182994	19.280575
440.000000	31.169513	19.291614
440.100000	31.155761	19.303860
440.200000	31.141718	19.317109
440.300000	31.127367	19.329974
440.400000	31.112690	19.343336
440.500000	31.097668	19.358251
440.600000	31.082284	19.375780
440.700000	31.066519	19.396980
440.800000	31.050356	19.427590
440.900000	31.033776	19.479938
441.000000	31.016761	19.516700
441.100000	30.999291	19.536722
441.200000	30.980506	19.551331
441.300000	30.959824	19.563404
441.400000	30.937455	19.575821
441.500000	30.913611	19.591463
441.600000	30.888501	19.613272
441.700000	30.862338	19.654675
441.800000	30.835331	19.701482
441.900000	30.807691	19.729825
442.000000	30.779629	19.751970
442.100000	30.751355	19.770786
442.200000	30.723081	19.787510
442.300000	30.695016	19.803378
442.400000	30.667373	19.819420
442.500000	30.640360	19.834308
442.600000	30.614189	19.847996
442.700000	30.589071	19.861051
442.800000	30.565217	19.874048
442.900000	30.542836	19.887555
443.000000	30.522141	19.902143
443.100000	30.503340	19.918295
443.200000	30.486098	19.934359
443.300000	30.469403	19.950899
443.400000	30.453204	19.969797
443.500000	30.437478	19.992934
443.600000	30.422202	20.023465
443.700000	30.407354	20.084642
443.800000	30.392910	20.123703
443.900000	30.378848	20.142691
444.000000	30.365145	20.157434
444.100000	30.351778	20.169076
444.200000	30.338724	20.178760
444.300000	30.325960	20.187625
444.400000	30.313464	20.196819
444.500000	30.301213	20.207478
444.600000	30.289183	20.220645
444.700000	30.277352	20.233768
444.800000	30.265698	20.246369
444.900000	30.254196	20.259878
445.000000	30.242825	20.275727
445.100000	30.231562	20.295346
445.200000	30.220383	20.320227
445.300000	30.209266	20.375308
445.400000	30.198188	20.423590
445.500000	30.187127	20.446326
445.600000	30.176058	20.463548
445.700000	30.164960	20.477284
445.800000	30.153810	20.489567
445.900000	30.142585	20.502426
446.000000	30.131261	20.517891
446.100000	30.119817	20.536846
446.200000	30.108229	20.557572
446.300000	30.096474	20.579304
446.400000	30.084529	20.601324
446.500000	30.072373	20.622909
446.600000	30.059981	20.644135
446.700000	30.047331	20.665422
446.800000	30.034401	20.686693
446.900000	30.021167	20.707866
447.000000	30.007606	20.728931
447.100000	29.993706	20.750840
447.200000	29.979530	20.773059
447.300000	29.965109	20.794445
447.400000	29.950460	20.813857
447.500000	29.935599	20.830105
447.600000	29.920544	20.842400
447.700000	29.905311	20.851918
447.800000	29.889919	20.860131
447.900000	29.874382	20.868504
448.000000	29.858720	20.878509
448.100000	29.842948	20.891613
448.200000	29.827084	20.909285
448.300000	29.811144	20.939024
448.400000	29.795146	21.018703
448.500000	29.779107	21.044970
448.600000	29.763044	21.062249
448.700000	29.746973	21.074938
448.800000	29.730912	21.084688
448.900000	29.714878	21.093151
449.000000	29.698888	21.101977
449.100000	29.682958	21.112815
449.200000	29.667107	21.127318
449.300000	29.651350	21.147433
449.400000	29.635705	21.171861
449.500000	29.620189	21.197280
449.600000	29.604819	21.220366
449.700000	29.589612	21.238571
449.800000	29.574584	21.253809
449.900000	29.559754	21.267324
450.000000	29.545137	21.280067
450.100000	29.530752	21.292993
450.200000	29.516614	21.307054
450.300000	29.502741	21.323200
450.400000	29.489116	21.343338
450.500000	29.475670	21.369291
450.600000	29.462393	21.396830
450.700000	29.449276	21.421300
450.800000	29.436311	21.439063
450.900000	29.423489	21.453384
451.000000	29.410803	21.465703
451.100000	29.398243	21.476724
451.200000	29.385801	21.487152
451.300000	29.373469	21.497694
451.400000	29.361239	21.509055
451.500000	29.349100	21.521942
451.600000	29.337047	21.537091
451.700000	29.325069	21.555111
451.800000	29.313158	21.575244
451.900000	29.301307	21.596471
452.000000	29.289506	21.617776
452.100000	29.277747	21.638231
452.200000	29.266022	21.658780
452.300000	29.254322	21.679570
452.400000	29.242638	21.700083
452.500000	29.230963	21.719797
452.600000	29.219288	21.738178
452.700000	29.207604	21.754705
452.800000	29.195903	21.769933
452.900000	29.184177	21.784703
453.000000	29.172416	21.799853
453.100000	29.160613	21.816223
453.200000	29.148760	21.834653
453.300000	29.136847	21.857650
453.400000	29.124866	21.884609
453.500000	29.112809	21.911390
453.600000	29.100667	21.933853
453.700000	29.088432	21.950831
453.800000	29.076096	21.965646
453.900000	29.063650	21.978909
454.000000	29.051085	21.991187
454.100000	29.038393	22.003047
454.200000	29.025566	22.015056
454.300000	29.012595	22.027779
454.400000	28.999472	22.041685
454.500000	28.986210	22.055854
454.600000	28.972829	22.070105
454.700000	28.959334	22.084684
454.800000	28.945731	22.099837
454.900000	28.932026	22.115813
455.000000	28.918225	22.132857
455.100000	28.904333	22.151725
455.200000	28.890357	22.173292
455.300000	28.876300	22.196158
455.400000	28.862171	22.218799
455.500000	28.847973	22.239692
455.600000	28.833713	22.258890
455.700000	28.819397	22.277407
455.800000	28.805030	22.295306
455.900000	28.790618	22.312644
456.000000	28.776167	22.329485
456.100000	28.761682	22.345807
456.200000	28.747169	22.360848
456.300000	28.732633	22.374913
456.400000	28.718081	22.388654
456.500000	28.703518	22.402723
456.600000	28.688950	22.417774
456.700000	28.674383	22.434458
456.800000	28.659822	22.454079
456.900000	28.645272	22.478176
457.000000	28.630741	22.503975
457.100000	28.616232	22.528352
457.200000	28.601753	22.548442
457.300000	28.587308	22.565730
457.400000	28.572904	22.581549
457.500000	28.558546	22.596353
457.600000	28.544240	22.610595
457.700000	28.529991	22.624732
457.800000	28.515806	22.639217
457.900000	28.501689	22.653972
458.000000	28.487600	22.667972
458.100000	28.473469	22.681627
458.200000	28.459299	22.695440
458.300000	28.445096	22.709911
458.400000	28.430864	22.725543
458.500000	28.416608	22.742838
458.600000	28.402332	22.763754
458.700000	28.388041	22.788672
458.800000	28.373739	22.814409
458.900000	28.359431	22.837758
459.000000	28.345122	22.856435
459.100000	28.330816	22.872689
459.200000	28.316517	22.887460
459.300000	28.302232	22.901374
459.400000	28.287963	22.915063
459.500000	28.273715	22.929152
459.600000	28.259494	22.944271
459.700000	28.245304	22.960570
459.800000	28.231149	22.977415
459.900000	28.217034	22.994707
460.000000	28.202964	23.012363
460.100000	28.188943	23.030298
460.200000	28.174975	23.048429
460.300000	28.161066	23.067830
460.400000	28.147220	23.088560
460.500000	28.133442	23.109253
460.600000	28.119735	23.128541
460.700000	28.106106	23.145058
460.800000	28.092557	23.158252
460.900000	28.079095	23.169776
461.000000	28.065723	23.180050
461.100000	28.052447	23.189402
461.200000	28.039270	23.198160
461.300000	28.026197	23.206650
461.400000	28.013234	23.215201
461.500000	28.000384	23.224139
461.600000	27.987668	23.233791
461.700000	27.975103	23.244485
461.800000	27.962679	23.256428
461.900000	27.950390	23.269188
462.000000	27.938228	23.282718
462.100000	27.926184	23.297056
462.200000	27.914252	23.312241
462.300000	27.902423	23.328311
462.400000	27.890690	23.345304
462.500000	27.879045	23.364101
462.600000	27.867480	23.386340
462.700000	27.855987	23.409996
462.800000	27.844559	23.432805
462.900000	27.833188	23.452503
463.000000	27.821867	23.468999
463.100000	27.810587	23.483915
463.200000	27.799341	23.497756
463.300000	27.788120	23.511032
463.400000	27.776918	23.524250
463.500000	27.765727	23.537919
463.600000	27.754538	23.552546
463.700000	27.743345	23.567998
463.800000	27.732139	23.583746
463.900000	27.720912	23.599857
464.000000	27.709657	23.616400
464.100000	27.698367	23.633442
464.200000	27.687032	23.651054
464.300000	27.675647	23.669805
464.400000	27.664202	23.690121
464.500000	27.652690	23.711008
464.600000	27.641104	23.731437
464.700000	27.629436	23.750388
464.800000	27.617677	23.767282
464.900000	27.605821	23.782984
465.000000	27.593859	23.797862
465.100000	27.581784	23.812228
465.200000	27.569588	23.826397
465.300000	27.557263	23.840683
465.400000	27.544802	23.855399
465.500000	27.532196	23.870389
465.600000	27.519438	23.885254
465.700000	27.506521	23.900136
465.800000	27.493427	23.915184
465.900000	27.480102	23.930541
466.000000	27.466551	23.946354
466.100000	27.452786	23.962815
466.200000	27.438822	23.980479
466.300000	27.424674	23.998988
466.400000	27.410354	24.017720
466.500000	27.395877	24.036050
466.600000	27.381257	24.053356
466.700000	27.366508	24.069240
466.800000	27.351644	24.084188
466.900000	27.336679	24.098496
467.000000	27.321626	24.112426
467.100000	27.306500	24.126239
467.200000	27.291315	24.140197
467.300000	27.276084	24.154560
467.400000	27.260822	24.169487
467.500000	27.245543	24.184734
467.600000	27.230260	24.200191
467.700000	27.214988	24.215766
467.800000	27.199740	24.231373
467.900000	27.184530	24.246920
468.000000	27.169373	24.262320
468.100000	27.154283	24.277721
468.200000	27.139273	24.293191
468.300000	27.124357	24.308638
468.400000	27.109549	24.323970
468.500000	27.094864	24.339097
468.600000	27.080314	24.353925
468.700000	27.065915	24.368342
468.800000	27.051680	24.382200
468.900000	27.037624	24.395657
469.000000	27.023759	24.408917
469.100000	27.010100	24.422183
469.200000	26.996656	24.435658
469.300000	26.983309	24.449545
469.400000	26.970009	24.464048
469.500000	26.956756	24.479308
469.600000	26.943552	24.495182
469.700000	26.930396	24.511452
469.800000	26.917289	24.527904
469.900000	26.904231	24.544318
470.000000	26.891224	24.560479
470.100000	26.878267	24.576387
470.200000	26.865362	24.592357
470.300000	26.852508	24.608303
470.400000	26.839706	24.624129
470.500000	26.826957	24.639731
470.600000	26.814261	24.655015
470.700000	26.801619	24.669856
470.800000	26.789031	24.683984
470.900000	26.776498	24.697573
471.000000	26.764021	24.710916
471.100000	26.751599	24.724302
471.200000	26.739233	24.738024
471.300000	26.726924	24.752375
471.400000	26.714673	24.767650
471.500000	26.702479	24.784653
471.600000	26.690344	24.803119
471.700000	26.678267	24.822105
471.800000	26.666250	24.840664
471.900000	26.654294	24.857854
472.000000	26.642397	24.872808
472.100000	26.630562	24.885796
472.200000	26.618788	24.897455
472.300000	26.607076	24.908335
472.400000	26.595426	24.918989
472.500000	26.583840	24.929968
472.600000	26.572317	24.941823
472.700000	26.560858	24.955106
472.800000	26.549464	24.970416
472.900000	26.538135	24.990660
473.000000	26.526872	25.014798
473.100000	26.515675	25.039339
473.200000	26.504544	25.060792
473.300000	26.493478	25.076547
473.400000	26.482464	25.089792
473.500000	26.471501	25.101577
473.600000	26.460587	25.112248
473.700000	26.449724	25.122152
473.800000	26.438909	25.131638
473.900000	26.428142	25.141050
474.000000	26.417424	25.150738
474.100000	26.406752	25.161048
474.200000	26.396128	25.172312
474.300000	26.385550	25.184117
474.400000	26.375018	25.196143
474.500000	26.364532	25.208395
474.600000	26.354090	25.220875
474.700000	26.343692	25.233585
474.800000	26.333339	25.246530
474.900000	26.323029	25.259711
475.000000	26.312761	25.273136
475.100000	26.302536	25.287051
475.200000	26.292353	25.301473
475.300000	26.282211	25.316227
475.400000	26.272109	25.331138
475.500000	26.262048	25.346027
475.600000	26.252027	25.360720
475.700000	26.242045	25.375040
475.800000	26.232102	25.388848
475.900000	26.222196	25.402289
476.000000	26.212329	25.415576
476.100000	26.202499	25.428923
476.200000	26.192705	25.442544
476.300000	26.182948	25.456652
476.400000	26.173226	25.471463
476.500000	26.163540	25.487411
476.600000	26.153888	25.504611
476.700000	26.144270	25.522475
476.800000	26.134686	25.540407
476.900000	26.125135	25.557814
477.000000	26.115616	25.574099
477.100000	26.106130	25.589253
477.200000	26.096675	25.603811
477.300000	26.087251	25.617908
477.400000	26.077858	25.631677
477.500000	26.068495	25.645251
477.600000	26.059161	25.658767
477.700000	26.049857	25.672358
477.800000	26.040581	25.685969
477.900000	26.031332	25.699291
478.000000	26.022112	25.712438
478.100000	26.012918	25.725542
478.200000	26.003751	25.738739
478.300000	25.994626	25.752160
478.400000	25.985613	25.765937
478.500000	25.976713	25.780211
478.600000	25.967923	25.795155
478.700000	25.959238	25.810636
478.800000	25.950652	25.826427
478.900000	25.942162	25.842306
479.000000	25.933761	25.858047
479.100000	25.925445	25.873423
479.200000	25.917210	25.888310
479.300000	25.909050	25.902903
479.400000	25.900961	25.917299
479.500000	25.892938	25.931580
479.600000	25.884975	25.945831
479.700000	25.877069	25.960136
479.800000	25.869213	25.974580
479.900000	25.861404	25.989260
480.000000	25.853637	26.004197
480.100000	25.845906	26.019262
480.200000	25.838207	26.034323
480.300000	25.830535	26.049246
480.400000	25.822886	26.063897
480.500000	25.815253	26.078144
480.600000	25.807633	26.091882
480.700000	25.800020	26.105180
480.800000	25.792410	26.118177
480.900000	25.784798	26.131012
481.000000	25.777178	26.143820
481.100000	25.769547	26.156742
481.200000	25.761900	26.169914
481.300000	25.754230	26.183473
481.400000	25.746535	26.197415
481.500000	25.738808	26.211629
481.600000	25.731044	26.226030
481.700000	25.723240	26.240528
481.800000	25.715390	26.255036
481.900000	25.707490	26.269464
482.000000	25.699533	26.283727
482.100000	25.691517	26.297859
482.200000	25.683435	26.311931
482.300000	25.675283	26.325962
482.400000	25.667057	26.339970
482.500000	25.658750	26.353975
482.600000	25.650359	26.367996
482.700000	25.641878	26.382052
482.800000	25.633303	26.396180
482.900000	25.624629	26.410386
483.000000	25.615850	26.424624
483.100000	25.606963	26.438845
483.200000	25.597962	26.453005
483.300000	25.588843	26.467055
483.400000	25.579600	26.480952
483.500000	25.570229	26.494678
483.600000	25.560724	26.508291
483.700000	25.551082	26.521804
483.800000	25.541296	26.535225
483.900000	25.531363	26.548567
484.000000	25.521278	26.561840
484.100000	25.511035	26.575052
484.200000	25.500630	26.588208
484.300000	25.489989	26.601157
484.400000	25.479034	26.613908
484.500000	25.467777	26.626558
484.600000	25.456234	26.639204
484.700000	25.444417	26.651947
484.800000	25.432341	26.664884
484.900000	25.420019	26.678112
485.000000	25.407466	26.691736
485.100000	25.394695	26.705836
485.200000	25.381720	26.720299
485.300000	25.368555	26.734987
485.400000	25.355213	26.749761
485.500000	25.341710	26.764482
485.600000	25.328058	26.779012
485.700000	25.314271	26.793264
485.800000	25.300363	26.807587
485.900000	25.286349	26.821957
486.000000	25.272242	26.836247
486.100000	25.258055	26.850327
486.200000	25.243804	26.864064
486.300000	25.229501	26.877331
486.400000	25.215160	26.889991
486.500000	25.200796	26.901813
486.600000	25.186422	26.912881
486.700000	25.172052	26.923447
486.800000	25.157701	26.933761
486.900000	25.143381	26.944074
487.000000	25.129106	26.954636
487.100000	25.114892	26.965699
487.200000	25.100750	26.977514
487.300000	25.086696	26.990334
487.400000	25.072744	27.004932
487.500000	25.058906	27.021238
487.600000	25.045197	27.038455
487.700000	25.031631	27.055787
487.800000	25.018222	27.072440
487.900000	25.004983	27.087618
488.000000	24.991903	27.101022
488.100000	24.978887	27.113475
488.200000	24.965925	27.125228
488.300000	24.953011	27.136505
488.400000	24.940144	27.147530
488.500000	24.927320	27.158525
488.600000	24.914535	27.169713
488.700000	24.901787	27.181318
488.800000	24.889073	27.193560
488.900000	24.876388	27.206391
489.000000	24.863730	27.219620
489.100000	24.851096	27.233127
489.200000	24.838482	27.246791
489.300000	24.825886	27.260491
489.400000	24.813303	27.274107
489.500000	24.800731	27.287519
489.600000	24.788167	27.300714
489.700000	24.775607	27.314019
489.800000	24.763048	27.327370
489.900000	24.750488	27.340658
490.000000	24.737921	27.353771
490.100000	24.725347	27.366600
490.200000	24.712760	27.379035
490.300000	24.700159	27.390966
490.400000	24.687540	27.402290
490.500000	24.674899	27.413038
490.600000	24.662234	27.423343
490.700000	24.649540	27.433337
490.800000	24.636816	27.443151
490.900000	24.624058	27.452919
491.000000	24.611262	27.462772
491.100000	24.598425	27.472843
491.200000	24.585545	27.483267
491.300000	24.572618	27.494172
491.400000	24.559640	27.505663
491.500000	24.546609	27.517664
491.600000	24.533520	27.530033
491.700000	24.520373	27.542629
491.800000	24.507161	27.555313
491.900000	24.493874	27.567944
492.000000	24.480444	27.580382
492.100000	24.466867	27.592485
492.200000	24.453154	27.604151
492.300000	24.439318	27.615463
492.400000	24.425368	27.626528
492.500000	24.411315	27.637452
492.600000	24.397171	27.648337
492.700000	24.382947	27.659289
492.800000	24.368653	27.670412
492.900000	24.354301	27.681810
493.000000	24.339901	27.693588
493.100000	24.325465	27.705904
493.200000	24.311004	27.718858
493.300000	24.296528	27.732251
493.400000	24.282048	27.745871
493.500000	24.267577	27.759508
493.600000	24.253123	27.772951
493.700000	24.238700	27.785988
493.800000	24.224316	27.798410
493.900000	24.209985	27.810283
494.000000	24.195716	27.821828
494.100000	24.181520	27.833104
494.200000	24.167409	27.844169
494.300000	24.153393	27.855080
494.400000	24.139484	27.865893
494.500000	24.125693	27.876668
494.600000	24.112030	27.887461
494.700000	24.098506	27.898330
494.800000	24.085133	27.909200
494.900000	24.071922	27.919944
495.000000	24.058883	27.930602
495.100000	24.046027	27.941216
495.200000	24.033366	27.951829
495.300000	24.020911	27.962483
495.400000	24.008672	27.973220
495.500000	23.996656	27.984082
495.600000	23.984803	27.995111
495.700000	23.973082	28.006346
495.800000	23.961489	28.017779
495.900000	23.950020	28.029371
496.000000	23.938670	28.041088
496.100000	23.927434	28.052892
496.200000	23.916308	28.064744
496.300000	23.905287	28.076607
496.400000	23.894365	28.088446
496.500000	23.883540	28.100220
496.600000	23.872805	28.112095
496.700000	23.862156	28.124249
496.800000	23.851589	28.136543
496.900000	23.841099	28.148834
497.000000	23.830681	28.160981
497.100000	23.820331	28.172844
497.200000	23.810043	28.184280
497.300000	23.799813	28.195148
497.400000	23.789637	28.205308
497.500000	23.779510	28.214737
497.600000	23.769427	28.223561
497.700000	23.759383	28.231922
497.800000	23.749374	28.239957
497.900000	23.739396	28.247807
498.000000	23.729443	28.255608
498.100000	23.719510	28.263502
498.200000	23.709594	28.271628
498.300000	23.699689	28.280125
498.400000	23.689791	28.289131
498.500000	23.679894	28.298786
498.600000	23.669996	28.309284
498.700000	23.660090	28.320883
498.800000	23.650172	28.333365
498.900000	23.640237	28.346462
499.000000	23.630282	28.359906
499.100000	23.620300	28.373429
499.200000	23.610288	28.386763
499.300000	23.600240	28.399640
499.400000	23.590152	28.411948
499.500000	23.580020	28.424144
499.600000	23.569838	28.436262
499.700000	23.559603	28.448279
499.800000	23.549309	28.460174
499.900000	23.538951	28.471922
500.000000	23.528525	28.483502
500.100000	23.518027	28.494892
500.200000	23.507451	28.506067
500.300000	23.496797	28.516949
500.400000	23.486112	28.527533
500.500000	23.475415	28.537893
500.600000	23.464705	28.548101
500.700000	23.453982	28.558229
500.800000	23.443247	28.568351
500.900000	23.432499	28.578537
501.000000	23.421739	28.588864
501.100000	23.410967	28.599401
501.200000	23.400183	28.610216
501.300000	23.389387	28.621271
501.400000	23.378579	28.632509
501.500000	23.367759	28.643886
501.600000	23.356927	28.655360
501.700000	23.346084	28.666889
501.800000	23.335229	28.678429
501.900000	23.324362	28.689938
502.000000	23.313485	28.701373
502.100000	23.302596	28.712706
502.200000	23.291696	28.724018
502.300000	23.280785	28.735323
502.400000	23.269863	28.746619
502.500000	23.258930	28.757898
502.600000	23.247986	28.769157
502.700000	23.237032	28.780389
502.800000	23.226067	28.791592
502.900000	23.215091	28.802760
503.000000	23.204105	28.813881
503.100000	23.193109	28.824925
503.200000	23.182102	28.835906
503.300000	23.171086	28.846846
503.400000	23.160059	28.857767
503.500000	23.149023	28.868694
503.600000	23.137977	28.879648
503.700000	23.126921	28.890653
503.800000	23.115855	28.901730
503.900000	23.104780	28.912900
504.000000	23.093695	28.924125
504.100000	23.082601	28.935389
504.200000	23.071498	28.946698
504.300000	23.060385	28.958052
504.400000	23.049263	28.969455
504.500000	23.038133	28.980911
504.600000	23.026994	28.992424
504.700000	23.015845	29.003996
504.800000	23.004688	29.015638
504.900000	22.993514	29.027408
505.000000	22.982286	29.039287
505.100000	22.971003	29.051242
505.200000	22.959667	29.063233
505.300000	22.948284	29.075229
505.400000	22.936855	29.087191
505.500000	22.925384	29.099086
505.600000	22.913876	29.110878
505.700000	22.902332	29.122610
505.800000	22.890758	29.134363
505.900000	22.879155	29.146107
506.000000	22.867528	29.157812
506.100000	22.855879	29.169447
506.200000	22.844214	29.180982
506.300000	22.832533	29.192386
506.400000	22.820842	29.203628
506.500000	22.809144	29.214678
506.600000	22.797441	29.225510
506.700000	22.785738	29.236149
506.800000	22.774037	29.246637
506.900000	22.762343	29.257013
507.000000	22.750659	29.267317
507.100000	22.738987	29.277589
507.200000	22.727332	29.287869
507.300000	22.715697	29.298198
507.400000	22.704085	29.308615
507.500000	22.692500	29.319144
507.600000	22.680946	29.329697
507.700000	22.669424	29.340263
507.800000	22.657940	29.350845
507.900000	22.646496	29.361451
508.000000	22.635096	29.372083
508.100000	22.623743	29.382749
508.200000	22.612440	29.393453
508.300000	22.601192	29.404200
508.400000	22.590001	29.414996
508.500000	22.578872	29.425875
508.600000	22.567806	29.436851
508.700000	22.556808	29.447897
508.800000	22.545882	29.458983
508.900000	22.535029	29.470085
509.000000	22.524255	29.481172
509.100000	22.513563	29.492217
509.200000	22.502955	29.503194
509.300000	22.492423	29.514075
509.400000	22.481938	29.524863
509.500000	22.471496	29.535611
509.600000	22.461097	29.546319
509.700000	22.450740	29.556985
509.800000	22.440424	29.567607
509.900000	22.430149	29.578185
510.000000	22.419912	29.588716
510.100000	22.409714	29.599201
510.200000	22.399553	29.609636
510.300000	22.389429	29.620024
510.400000	22.379341	29.630414
510.500000	22.369288	29.640808
510.600000	22.359269	29.651182
510.700000	22.349283	29.661514
510.800000	22.339329	29.671782
510.900000	22.329407	29.681959
511.000000	22.319516	29.692026
511.100000	22.309654	29.701958
511.200000	22.299821	29.711731
511.300000	22.290016	29.721316
511.400000	22.280238	29.730599
511.500000	22.270487	29.739608
511.600000	22.260761	29.748414
511.700000	22.251059	29.757089
511.800000	22.241381	29.765708
511.900000	22.231726	29.774344
512.000000	22.222093	29.783067
512.100000	22.212481	29.791952
512.200000	22.202889	29.801070
512.300000	22.193317	29.810496
512.400000	22.183762	29.820300
512.500000	22.174226	29.830520
512.600000	22.164706	29.841108
512.700000	22.155202	29.852000
512.800000	22.145713	29.863136
512.900000	22.136239	29.874452
513.000000	22.126777	29.885886
513.100000	22.117328	29.897378
513.200000	22.107890	29.908864
513.300000	22.098463	29.920284
513.400000	22.089046	29.931815
513.500000	22.079638	29.943621
513.600000	22.070238	29.955594
513.700000	22.060845	29.967618
513.800000	22.051458	29.979584
513.900000	22.042077	29.991380
514.000000	22.032701	30.002894
514.100000	22.023328	30.014013
514.200000	22.013958	30.024633
514.300000	22.004590	30.034769
514.400000	21.995229	30.044520
514.500000	21.985910	30.053974
514.600000	21.976636	30.063220
514.700000	21.967406	30.072346
514.800000	21.958218	30.081441
514.900000	21.949069	30.090593
515.000000	21.939958	30.099891
515.100000	21.930884	30.109423
515.200000	21.921843	30.119277
515.300000	21.912835	30.129499
515.400000	21.903857	30.139984
515.500000	21.894908	30.150685
515.600000	21.885985	30.161561
515.700000	21.877087	30.172575
515.800000	21.868213	30.183686
515.900000	21.859359	30.194856
516.000000	21.850524	30.206046
516.100000	21.841707	30.217216
516.200000	21.832905	30.228359
516.300000	21.824117	30.239703
516.400000	21.815340	30.251224
516.500000	21.806574	30.262837
516.600000	21.797815	30.274452
516.700000	21.789062	30.285984
516.800000	21.780313	30.297344
516.900000	21.771567	30.308445
517.000000	21.762821	30.319199
517.100000	21.754074	30.329529
517.200000	21.745323	30.339467
517.300000	21.736568	30.349091
517.400000	21.727805	30.358472
517.500000	21.719033	30.367684
517.600000	21.710251	30.376797
517.700000	21.701455	30.385884
517.800000	21.692646	30.395017
517.900000	21.683819	30.404270
518.000000	21.674975	30.413714
518.100000	21.666110	30.423422
518.200000	21.657223	30.433438
518.300000	21.648313	30.443711
518.400000	21.639376	30.454180
518.500000	21.630412	30.464788
518.600000	21.621418	30.475479
518.700000	21.612393	30.486195
518.800000	21.603335	30.496880
518.900000	21.594241	30.507476
519.000000	21.585110	30.517926
519.100000	21.575941	30.528175
519.200000	21.566730	30.538238
519.300000	21.557477	30.548168
519.400000	21.548180	30.557996
519.500000	21.538836	30.567753
519.600000	21.529443	30.577469
519.700000	21.520001	30.587174
519.800000	21.510506	30.596900
519.900000	21.500958	30.606675
520.000000	21.491344	30.616531
520.100000	21.481651	30.626497
520.200000	21.471884	30.636606
520.300000	21.462045	30.646847
520.400000	21.452137	30.657185
520.500000	21.442164	30.667583
520.600000	21.432130	30.678006
520.700000	21.422037	30.688415
520.800000	21.411890	30.698775
520.900000	21.401691	30.709051
521.000000	21.391444	30.719205
521.100000	21.381153	30.729201
521.200000	21.370820	30.739016
521.300000	21.360450	30.748675
521.400000	21.350045	30.758213
521.500000	21.339609	30.767668
521.600000	21.329145	30.777075
521.700000	21.318657	30.786469
521.800000	21.308149	30.795885
521.900000	21.297622	30.805361
522.000000	21.287082	30.814930
522.100000	21.276531	30.824628
522.200000	21.265972	30.834483
522.300000	21.255410	30.844445
522.400000	21.244847	30.854491
522.500000	21.234287	30.864611
522.600000	21.223733	30.874796
522.700000	21.213189	30.885038
522.800000	21.202658	30.895324
522.900000	21.192143	30.905647
523.000000	21.181649	30.915998
523.100000	21.171177	30.926365
523.200000	21.160732	30.936754
523.300000	21.150317	30.947223
523.400000	21.139936	30.957763
523.500000	21.129591	30.968353
523.600000	21.119286	30.978973
523.700000	21.109025	30.989602
523.800000	21.098811	31.000220
523.900000	21.088647	31.010806
524.000000	21.078537	31.021339
524.100000	21.068485	31.031798
524.200000	21.058492	31.042213
524.300000	21.048564	31.052624
524.400000	21.038703	31.063022
524.500000	21.028913	31.073396
524.600000	21.019196	31.083734
524.700000	21.009558	31.094028
524.800000	21.000000	31.104264
524.900000	20.990508	31.114434
525.000000	20.981064	31.124526
525.100000	20.971665	31.134529
525.200000	20.962312	31.144417
525.300000	20.953002	31.154195
525.400000	20.943734	31.163884
525.500000	20.934506	31.173509
525.600000	20.925318	31.183092
525.700000	20.916168	31.192655
525.800000	20.907054	31.202222
525.900000	20.897975	31.211817
526.000000	20.888930	31.221460
526.100000	20.879917	31.231175
526.200000	20.870936	31.240978
526.300000	20.861983	31.250843
526.400000	20.853059	31.260756
526.500000	20.844161	31.270703
526.600000	20.835289	31.280670
526.700000	20.826441	31.290645
526.800000	20.817616	31.300611
526.900000	20.808811	31.310556
527.000000	20.800027	31.320466
527.100000	20.791260	31.330327
527.200000	20.782511	31.340126
527.300000	20.773778	31.349862
527.400000	20.765059	31.359551
527.500000	20.756352	31.369203
527.600000	20.747657	31.378834
527.700000	20.738972	31.388455
527.800000	20.730296	31.398082
527.900000	20.721628	31.407726
528.000000	20.712965	31.417401
528.100000	20.704306	31.427122
528.200000	20.695651	31.436900
528.300000	20.686998	31.446755
528.400000	20.678345	31.456680
528.500000	20.669691	31.466658
528.600000	20.661034	31.476666
528.700000	20.652374	31.486688
528.800000	20.643708	31.496704
528.900000	20.635036	31.506695
529.000000	20.626356	31.516640
529.100000	20.617667	31.526521
529.200000	20.608967	31.536319
529.300000	20.600255	31.546017
529.400000	20.591529	31.555625
529.500000	20.582789	31.565161
529.600000	20.574032	31.574648
529.700000	20.565257	31.584104
529.800000	20.556464	31.593549
529.900000	20.547650	31.603004
530.000000	20.538814	31.612491
530.100000	20.529955	31.622026
530.200000	20.521071	31.631633
530.300000	20.512161	31.641335
530.400000	20.503224	31.651212
530.500000	20.494256	31.661243
530.600000	20.485248	31.671374
530.700000	20.476202	31.681548
530.800000	20.467120	31.691710
530.900000	20.458004	31.701803
531.000000	20.448856	31.711772
531.100000	20.439678	31.721559
531.200000	20.430472	31.731109
531.300000	20.421240	31.740368
531.400000	20.411984	31.749281
531.500000	20.402707	31.757884
531.600000	20.393411	31.766242
531.700000	20.384097	31.774422
531.800000	20.374768	31.782488
531.900000	20.365425	31.790508
532.000000	20.356072	31.798546
532.100000	20.346709	31.806668
532.200000	20.337339	31.814941
532.300000	20.327965	31.823430
532.400000	20.318587	31.832200
532.500000	20.309209	31.841320
532.600000	20.299832	31.850906
532.700000	20.290459	31.860943
532.800000	20.281091	31.871320
532.900000	20.271730	31.881925
533.000000	20.262380	31.892647
533.100000	20.253041	31.903376
533.200000	20.243715	31.914002
533.300000	20.234406	31.924410
533.400000	20.225115	31.934492
533.500000	20.215844	31.944143
533.600000	20.206595	31.953478
533.700000	20.197371	31.962594
533.800000	20.188172	31.971530
533.900000	20.179002	31.980323
534.000000	20.169863	31.989007
534.100000	20.160756	31.997622
534.200000	20.151684	32.006204
534.300000	20.142649	32.014789
534.400000	20.133652	32.023413
534.500000	20.124697	32.032115
534.600000	20.115784	32.040931
534.700000	20.106917	32.049835
534.800000	20.098096	32.058717
534.900000	20.089325	32.067587
535.000000	20.080606	32.076460
535.100000	20.071939	32.085353
535.200000	20.063329	32.094282
535.300000	20.054776	32.103261
535.400000	20.046282	32.112307
535.500000	20.037850	32.121436
535.600000	20.029483	32.130662
535.700000	20.021181	32.140004
535.800000	20.012947	32.149489
535.900000	20.004783	32.159176
536.000000	19.996692	32.169029
536.100000	19.988682	32.179007
536.200000	19.980753	32.189069
536.300000	19.972901	32.199173
536.400000	19.965124	32.209275
536.500000	19.957419	32.219334
536.600000	19.949785	32.229309
536.700000	19.942217	32.239155
536.800000	19.934715	32.248846
536.900000	19.927274	32.258487
537.000000	19.919893	32.268100
537.100000	19.912569	32.277676
537.200000	19.905299	32.287206
537.300000	19.898081	32.296682
537.400000	19.890912	32.306093
537.500000	19.883789	32.315431
537.600000	19.876711	32.324688
537.700000	19.869673	32.333853
537.800000	19.862675	32.342918
537.900000	19.855712	32.351859
538.000000	19.848783	32.360627
538.100000	19.841885	32.369251
538.200000	19.835015	32.377765
538.300000	19.828170	32.386201
538.400000	19.821349	32.394590
538.500000	19.814549	32.402969
538.600000	19.807766	32.411369
538.700000	19.800999	32.419825
538.800000	19.794244	32.428367
538.900000	19.787499	32.437032
539.000000	19.780762	32.445850
539.100000	19.774030	32.454846
539.200000	19.767300	32.463998
539.300000	19.760570	32.473275
539.400000	19.753837	32.482647
539.500000	19.747099	32.492083
539.600000	19.740352	32.501552
539.700000	19.733595	32.511026
539.800000	19.726824	32.520469
539.900000	19.720038	32.529856
540.000000	19.713233	32.539152
540.100000	19.706407	32.548329
540.200000	19.699558	32.557430
540.300000	19.692682	32.566515
540.400000	19.685777	32.575576
540.500000	19.678841	32.584605
540.600000	19.671871	32.593596
540.700000	19.664864	32.602543
540.800000	19.657817	32.611436
540.900000	19.650729	32.620270
541.000000	19.643597	32.629039
541.100000	19.636417	32.637733
541.200000	19.629188	32.646347
541.300000	19.621907	32.654851
541.400000	19.614570	32.663185
541.500000	19.607177	32.671379
541.600000	19.599723	32.679465
541.700000	19.592206	32.687479
541.800000	19.584625	32.695459
541.900000	19.576975	32.703436
542.000000	19.569255	32.711448
542.100000	19.561462	32.719530
542.200000	19.553593	32.727716
542.300000	19.545646	32.736043
542.400000	19.537619	32.744545
542.500000	19.529507	32.753263
542.600000	19.521310	32.762279
542.700000	19.513024	32.771558
542.800000	19.504647	32.781032
542.900000	19.496170	32.790636
543.000000	19.487543	32.800304
543.100000	19.478763	32.809970
543.200000	19.469836	32.819565
543.300000	19.460767	32.829024
543.400000	19.451564	32.838282
543.500000	19.442231	32.847270
543.600000	19.432776	32.855936
543.700000	19.423203	32.864332
543.800000	19.413520	32.872510
543.900000	19.403732	32.880515
544.000000	19.393846	32.888390
544.100000	19.383867	32.896182
544.200000	19.373801	32.903931
544.300000	19.363656	32.911687
544.400000	19.353436	32.919492
544.500000	19.343148	32.927389
544.600000	19.332797	32.935425
544.700000	19.322391	32.943644
544.800000	19.311935	32.952090
544.900000	19.301435	32.960802
545.000000	19.290898	32.969760
545.100000	19.280328	32.978913
545.200000	19.269733	32.988210
545.300000	19.259119	32.997602
545.400000	19.248491	33.007040
545.500000	19.237856	33.016473
545.600000	19.227220	33.025851
545.700000	19.216589	33.035124
545.800000	19.205968	33.044242
545.900000	19.195365	33.053156
546.000000	19.184784	33.061833
546.100000	19.174233	33.070305
546.200000	19.163717	33.078617
546.300000	19.153243	33.086817
546.400000	19.142816	33.094950
546.500000	19.132442	33.103063
546.600000	19.122128	33.111202
546.700000	19.111880	33.119414
546.800000	19.101704	33.127743
546.900000	19.091606	33.136237
547.000000	19.081591	33.144943
547.100000	19.071667	33.153907
547.200000	19.061838	33.163276
547.300000	19.052112	33.173126
547.400000	19.042495	33.183330
547.500000	19.032991	33.193757
547.600000	19.023608	33.204276
547.700000	19.014352	33.214758
547.800000	19.005229	33.225071
547.900000	18.996235	33.235085
548.000000	18.987308	33.244671
548.100000	18.978430	33.253698
548.200000	18.969600	33.262092
548.300000	18.960817	33.269976
548.400000	18.952080	33.277438
548.500000	18.943388	33.284571
548.600000	18.934739	33.291462
548.700000	18.926134	33.298202
548.800000	18.917571	33.304878
548.900000	18.909048	33.311583
549.000000	18.900565	33.318403
549.100000	18.892120	33.325429
549.200000	18.883712	33.332751
549.300000	18.875342	33.340456
549.400000	18.867006	33.348636
549.500000	18.858705	33.357380
549.600000	18.850436	33.367158
549.700000	18.842200	33.378062
549.800000	18.833995	33.389758
549.900000	18.825820	33.401916
550.000000	18.817673	33.414204
550.100000	18.809555	33.426289
550.200000	18.801463	33.437841
550.300000	18.793397	33.448527
550.400000	18.785355	33.458018
550.500000	18.777337	33.466557
550.600000	18.769341	33.474619
550.700000	18.761367	33.482268
550.800000	18.753412	33.489565
550.900000	18.745477	33.496572
551.000000	18.737561	33.503352
551.100000	18.729661	33.509967
551.200000	18.721777	33.516477
551.300000	18.713908	33.522947
551.400000	18.706053	33.529437
551.500000	18.698210	33.536010
551.600000	18.690380	33.542729
551.700000	18.682560	33.549655
551.800000	18.674749	33.556850
551.900000	18.666947	33.564294
552.000000	18.659152	33.571797
552.100000	18.651364	33.579350
552.200000	18.643581	33.586959
552.300000	18.635802	33.594628
552.400000	18.628026	33.602363
552.500000	18.620252	33.610167
552.600000	18.612479	33.618047
552.700000	18.604705	33.626004
552.800000	18.596931	33.634046
552.900000	18.589154	33.642177
553.000000	18.581374	33.650401
553.100000	18.573590	33.658721
553.200000	18.565800	33.667211
553.300000	18.558003	33.675955
553.400000	18.550199	33.684901
553.500000	18.542386	33.693999
553.600000	18.534564	33.703197
553.700000	18.526730	33.712441
553.800000	18.518884	33.721680
553.900000	18.511026	33.730861
554.000000	18.503153	33.739932
554.100000	18.495270	33.748839
554.200000	18.487396	33.757532
554.300000	18.479532	33.765966
554.400000	18.471679	33.774168
554.500000	18.463836	33.782183
554.600000	18.456003	33.790053
554.700000	18.448179	33.797819
554.800000	18.440365	33.805525
554.900000	18.432560	33.813212
555.000000	18.424765	33.820922
555.100000	18.416978	33.828699
555.200000	18.409199	33.836583
555.300000	18.401429	33.844617
555.400000	18.393667	33.852844
555.500000	18.385913	33.861305
555.600000	18.378167	33.870087
555.700000	18.370427	33.879220
555.800000	18.362695	33.888625
555.900000	18.354970	33.898219
556.000000	18.347252	33.907924
556.100000	18.339540	33.917658
556.200000	18.331835	33.927339
556.300000	18.324135	33.936887
556.400000	18.316441	33.946223
556.500000	18.308753	33.955263
556.600000	18.301070	33.963929
556.700000	18.293393	33.972240
556.800000	18.285720	33.980283
556.900000	18.278051	33.988105
557.000000	18.270388	33.995751
557.100000	18.262728	34.003269
557.200000	18.255072	34.010707
557.300000	18.247420	34.018111
557.400000	18.239772	34.025529
557.500000	18.232126	34.033006
557.600000	18.224484	34.040591
557.700000	18.216844	34.048329
557.800000	18.209208	34.056270
557.900000	18.201573	34.064459
558.000000	18.193941	34.072960
558.100000	18.186310	34.081758
558.200000	18.178681	34.090786
558.300000	18.171053	34.099977
558.400000	18.163427	34.109266
558.500000	18.155802	34.118585
558.600000	18.148177	34.127868
558.700000	18.140553	34.137048
558.800000	18.132929	34.146058
558.900000	18.125305	34.154834
559.000000	18.117681	34.163305
559.100000	18.110057	34.171461
559.200000	18.102431	34.179406
559.300000	18.094805	34.187174
559.400000	18.087178	34.194792
559.500000	18.079550	34.202288
559.600000	18.071919	34.209693
559.700000	18.064288	34.217031
559.800000	18.056654	34.224331
559.900000	18.049017	34.231623
560.000000	18.041379	34.238934
560.100000	18.033737	34.246290
560.200000	18.026093	34.253721
560.300000	18.018445	34.261254
560.400000	18.010794	34.268914
560.500000	18.003140	34.276663
560.600000	17.995482	34.284474
560.700000	17.987823	34.292335
560.800000	17.980164	34.300233
560.900000	17.972505	34.308157
561.000000	17.964845	34.316094
561.100000	17.957186	34.324032
561.200000	17.949526	34.331959
561.300000	17.941866	34.339862
561.400000	17.934207	34.347730
561.500000	17.926547	34.355551
561.600000	17.918888	34.363311
561.700000	17.911229	34.371001
561.800000	17.903570	34.378635
561.900000	17.895911	34.386221
562.000000	17.888253	34.393767
562.100000	17.880596	34.401280
562.200000	17.872939	34.408769
562.300000	17.865283	34.416241
562.400000	17.857627	34.423704
562.500000	17.849973	34.431164
562.600000	17.842319	34.438630
562.700000	17.834666	34.446109
562.800000	17.827014	34.453608
562.900000	17.819363	34.461137
563.000000	17.811713	34.468700
563.100000	17.804065	34.476256
563.200000	17.796417	34.483774
563.300000	17.788771	34.491265
563.400000	17.781127	34.498746
563.500000	17.773483	34.506231
563.600000	17.765842	34.513734
563.700000	17.758202	34.521271
563.800000	17.750563	34.528855
563.900000	17.742926	34.536502
564.000000	17.735291	34.544226
564.100000	17.727658	34.552042
564.200000	17.720027	34.559964
564.300000	17.712398	34.568008
564.400000	17.704770	34.576237
564.500000	17.697145	34.584732
564.600000	17.689522	34.593438
564.700000	17.681901	34.602297
564.800000	17.674283	34.611253
564.900000	17.666667	34.620247
565.000000	17.659053	34.629223
565.100000	17.651442	34.638122
565.200000	17.643834	34.646889
565.300000	17.636228	34.655463
565.400000	17.628625	34.663789
565.500000	17.621024	34.671811
565.600000	17.613427	34.679540
565.700000	17.605832	34.687033
565.800000	17.598241	34.694329
565.900000	17.590652	34.701468
566.000000	17.583066	34.708489
566.100000	17.575484	34.715433
566.200000	17.567905	34.722337
566.300000	17.560329	34.729241
566.400000	17.552756	34.736184
566.500000	17.545187	34.743206
566.600000	17.537622	34.750348
566.700000	17.530060	34.757646
566.800000	17.522502	34.765142
566.900000	17.514947	34.772874
567.000000	17.507396	34.780905
567.100000	17.499849	34.789212
567.200000	17.492305	34.797738
567.300000	17.484761	34.806425
567.400000	17.477219	34.815215
567.500000	17.469678	34.824051
567.600000	17.462138	34.832873
567.700000	17.454600	34.841625
567.800000	17.447064	34.850248
567.900000	17.439528	34.858686
568.000000	17.431995	34.866878
568.100000	17.424463	34.874773
568.200000	17.416932	34.882415
568.300000	17.409404	34.889863
568.400000	17.401877	34.897147
568.500000	17.394352	34.904298
568.600000	17.386829	34.911347
568.700000	17.379307	34.918327
568.800000	17.371788	34.925267
568.900000	17.364271	34.932200
569.000000	17.356756	34.939157
569.100000	17.349243	34.946168
569.200000	17.341733	34.953266
569.300000	17.334225	34.960481
569.400000	17.326719	34.967846
569.500000	17.319215	34.975392
569.600000	17.311714	34.983180
569.700000	17.304215	34.991194
569.800000	17.296720	34.999380
569.900000	17.289226	35.007689
570.000000	17.281736	35.016068
570.100000	17.274248	35.024465
570.200000	17.266762	35.032831
570.300000	17.259280	35.041110
570.400000	17.251801	35.049254
570.500000	17.244324	35.057211
570.600000	17.236851	35.064929
570.700000	17.229381	35.072357
570.800000	17.221914	35.079456
570.900000	17.214450	35.086269
571.000000	17.206989	35.092838
571.100000	17.199531	35.099203
571.200000	17.192077	35.105405
571.300000	17.184627	35.111481
571.400000	17.177179	35.117474
571.500000	17.169736	35.123422
571.600000	17.162296	35.129366
571.700000	17.154859	35.135345
571.800000	17.147426	35.141400
571.900000	17.139997	35.147569
572.000000	17.132572	35.153894
572.100000	17.125151	35.160414
572.200000	17.117733	35.167168
572.300000	17.110320	35.174198
572.400000	17.102910	35.181552
572.500000	17.095505	35.189257
572.600000	17.088104	35.197260
572.700000	17.080707	35.205510
572.800000	17.073314	35.213952
572.900000	17.065926	35.222535
573.000000	17.058542	35.231208
573.100000	17.051162	35.239916
573.200000	17.043787	35.248608
573.300000	17.036416	35.257230
573.400000	17.029050	35.265731
573.500000	17.021689	35.274058
573.600000	17.014332	35.282201
573.700000	17.006980	35.290296
573.800000	16.999633	35.298357
573.900000	16.992290	35.306384
574.000000	16.984953	35.314379
574.100000	16.977619	35.322344
574.200000	16.970291	35.330279
574.300000	16.962967	35.338185
574.400000	16.955647	35.346063
574.500000	16.948331	35.353915
574.600000	16.941020	35.361742
574.700000	16.933713	35.369543
574.800000	16.926411	35.377321
574.900000	16.919112	35.385073
575.000000	16.911818	35.392795
575.100000	16.904527	35.400488
575.200000	16.897241	35.408153
575.300000	16.889958	35.415792
575.400000	16.882680	35.423407
575.500000	16.875405	35.431000
575.600000	16.868134	35.438571
575.700000	16.860867	35.446124
575.800000	16.853603	35.453660
575.900000	16.846343	35.461178
576.000000	16.839086	35.468683
576.100000	16.831833	35.476175
576.200000	16.824583	35.483652
576.300000	16.817337	35.491102
576.400000	16.810094	35.498527
576.500000	16.802854	35.505928
576.600000	16.795617	35.513310
576.700000	16.788384	35.520676
576.800000	16.781154	35.528028
576.900000	16.773926	35.535368
577.000000	16.766702	35.542702
577.100000	16.759481	35.550030
577.200000	16.752262	35.557357
577.300000	16.745047	35.564684
577.400000	16.737834	35.572017
577.500000	16.730624	35.579356
577.600000	16.723416	35.586718
577.700000	16.716211	35.594117
577.800000	16.709009	35.601543
577.900000	16.701809	35.608985
578.000000	16.694611	35.616431
578.100000	16.687416	35.623871
578.200000	16.680224	35.631296
578.300000	16.673033	35.638691
578.400000	16.665845	35.646049
578.500000	16.658659	35.653356
578.600000	16.651475	35.660603
578.700000	16.644293	35.667778
578.800000	16.637113	35.674871
578.900000	16.629935	35.681871
579.000000	16.622759	35.688741
579.100000	16.615585	35.695475
579.200000	16.608412	35.702094
579.300000	16.601242	35.708623
579.400000	16.594072	35.715084
579.500000	16.586905	35.721499
579.600000	16.579739	35.727892
579.700000	16.572575	35.734285
579.800000	16.565412	35.740701
579.900000	16.558250	35.747163
580.000000	16.551090	35.753693
580.100000	16.543931	35.760314
580.200000	16.536773	35.767050
580.300000	16.529617	35.773922
580.400000	16.522461	35.780954
580.500000	16.515307	35.788199
580.600000	16.508154	35.795706
580.700000	16.501001	35.803431
580.800000	16.493851	35.811322
580.900000	16.486703	35.819334
581.000000	16.479559	35.827415
581.100000	16.472418	35.835520
581.200000	16.465281	35.843598
581.300000	16.458146	35.851602
581.400000	16.451014	35.859481
581.500000	16.443886	35.867190
581.600000	16.436760	35.874678
581.700000	16.429637	35.881897
581.800000	16.422517	35.888827
581.900000	16.415400	35.895528
582.000000	16.408285	35.902032
582.100000	16.401173	35.908372
582.200000	16.394064	35.914578
582.300000	16.386957	35.920685
582.400000	16.379853	35.926721
582.500000	16.372751	35.932718
582.600000	16.365651	35.938709
582.700000	16.358554	35.944727
582.800000	16.351459	35.950800
582.900000	16.344367	35.956962
583.000000	16.337276	35.963246
583.100000	16.330188	35.969680
583.200000	16.323102	35.976298
583.300000	16.316017	35.983131
583.400000	16.308935	35.990215
583.500000	16.301855	35.997554
583.600000	16.294776	36.005111
583.700000	16.287699	36.012846
583.800000	16.280625	36.020721
583.900000	16.273551	36.028698
584.000000	16.266480	36.036739
584.100000	16.259410	36.044806
584.200000	16.252341	36.052858
584.300000	16.245274	36.060859
584.400000	16.238208	36.068770
584.500000	16.231144	36.076551
584.600000	16.224081	36.084166
584.700000	16.217020	36.091625
584.800000	16.209959	36.099012
584.900000	16.202900	36.106340
585.000000	16.195842	36.113612
585.100000	16.188785	36.120838
585.200000	16.181729	36.128023
585.300000	16.174674	36.135175
585.400000	16.167619	36.142303
585.500000	16.160566	36.149410
585.600000	16.153514	36.156506
585.700000	16.146462	36.163596
585.800000	16.139411	36.170689
585.900000	16.132360	36.177790
586.000000	16.125310	36.184907
586.100000	16.118261	36.192017
586.200000	16.111212	36.199056
586.300000	16.104163	36.206036
586.400000	16.097115	36.212977
586.500000	16.090067	36.219892
586.600000	16.083020	36.226799
586.700000	16.075972	36.233714
586.800000	16.068925	36.240655
586.900000	16.061878	36.247637
587.000000	16.054831	36.254678
587.100000	16.047784	36.261793
587.200000	16.040736	36.269002
587.300000	16.033689	36.276317
587.400000	16.026642	36.283758
587.500000	16.019594	36.291357
587.600000	16.012546	36.299225
587.700000	16.005498	36.307333
587.800000	15.998449	36.315624
587.900000	15.991400	36.324042
588.000000	15.984351	36.332533
588.100000	15.977301	36.341038
588.200000	15.970251	36.349503
588.300000	15.963200	36.357872
588.400000	15.956149	36.366088
588.500000	15.949099	36.374095
588.600000	15.942048	36.381838
588.700000	15.934997	36.389261
588.800000	15.927946	36.396420
588.900000	15.920895	36.403400
589.000000	15.913844	36.410223
589.100000	15.906793	36.416906
589.200000	15.899743	36.423470
589.300000	15.892693	36.429934
589.400000	15.885643	36.436319
589.500000	15.878594	36.442642
589.600000	15.871545	36.448924
589.700000	15.864497	36.455185
589.800000	15.857449	36.461444
589.900000	15.850402	36.467722
590.000000	15.843355	36.474035
590.100000	15.836310	36.480406
590.200000	15.829265	36.486853
590.300000	15.822220	36.493375
590.400000	15.815177	36.499876
590.500000	15.808135	36.506350
590.600000	15.801094	36.512805
590.700000	15.794054	36.519250
590.800000	15.787015	36.525693
590.900000	15.779977	36.532144
591.000000	15.772940	36.538612
591.100000	15.765905	36.545103
591.200000	15.758871	36.551629
591.300000	15.751838	36.558197
591.400000	15.744807	36.564816
591.500000	15.737778	36.571494
591.600000	15.730750	36.578241
591.700000	15.723723	36.585067
591.800000	15.716699	36.591978
591.900000	15.709676	36.599049
592.000000	15.702654	36.606295
592.100000	15.695635	36.613680
592.200000	15.688618	36.621172
592.300000	15.681602	36.628738
592.400000	15.674589	36.636344
592.500000	15.667577	36.643957
592.600000	15.660568	36.651542
592.700000	15.653561	36.659068
592.800000	15.646556	36.666499
592.900000	15.639553	36.673802
593.000000	15.632553	36.680946
593.100000	15.625555	36.687895
593.200000	15.618560	36.694617
593.300000	15.611567	36.701112
593.400000	15.604577	36.707409
593.500000	15.597589	36.713540
593.600000	15.590604	36.719535
593.700000	15.583622	36.725426
593.800000	15.576643	36.731242
593.900000	15.569666	36.737016
594.000000	15.562693	36.742779
594.100000	15.555722	36.748562
594.200000	15.548754	36.754395
594.300000	15.541790	36.760309
594.400000	15.534828	36.766336
594.500000	15.527870	36.772506
594.600000	15.520915	36.778851
594.700000	15.513963	36.785403
594.800000	15.507014	36.792190
594.900000	15.500069	36.799265
595.000000	15.493126	36.806650
595.100000	15.486182	36.814298
595.200000	15.479237	36.822165
595.300000	15.472293	36.830205
595.400000	15.465348	36.838373
595.500000	15.458403	36.846622
595.600000	15.451458	36.854909
595.700000	15.444514	36.863188
595.800000	15.437569	36.871411
595.900000	15.430625	36.879535
596.000000	15.423682	36.887515
596.100000	15.416739	36.895306
596.200000	15.409797	36.903025
596.300000	15.402855	36.910748
596.400000	15.395915	36.918464
596.500000	15.388976	36.926160
596.600000	15.382038	36.933827
596.700000	15.375101	36.941454
596.800000	15.368165	36.949030
596.900000	15.361231	36.956544
597.000000	15.354299	36.963987
597.100000	15.347368	36.971344
597.200000	15.340439	36.978609
597.300000	15.333512	36.985769
597.400000	15.326587	36.992812
597.500000	15.319664	36.999731
597.600000	15.312744	37.006534
597.700000	15.305825	37.013231
597.800000	15.298910	37.019835
597.900000	15.291996	37.026357
598.000000	15.285086	37.032808
598.100000	15.278178	37.039200
598.200000	15.271274	37.045547
598.300000	15.264372	37.051857
598.400000	15.257473	37.058144
598.500000	15.250578	37.064418
598.600000	15.243686	37.070691
598.700000	15.236797	37.076977
598.800000	15.229912	37.083284
598.900000	15.223031	37.089626
599.000000	15.216153	37.096015
599.100000	15.209280	37.102413
599.200000	15.202410	37.108779
599.300000	15.195545	37.115116
599.400000	15.188683	37.121432
599.500000	15.181826	37.127737
599.600000	15.174974	37.134037
599.700000	15.168126	37.140338
599.800000	15.161283	37.146650
599.900000	15.154444	37.152980
600.000000	15.147611	37.159334
600.100000	15.140782	37.165721
600.200000	15.133958	37.172148
600.300000	15.127140	37.178623
600.400000	15.120327	37.185153
600.500000	15.113519	37.191745
600.600000	15.106717	37.198408
600.700000	15.099921	37.205143
600.800000	15.093130	37.211945
600.900000	15.086346	37.218806
601.000000	15.079567	37.225721
601.100000	15.072794	37.232683
601.200000	15.066028	37.239686
601.300000	15.059268	37.246723
601.400000	15.052514	37.253788
601.500000	15.045767	37.260875
601.600000	15.039026	37.267976
601.700000	15.032292	37.275086
601.800000	15.025565	37.282198
601.900000	15.018845	37.289306
602.000000	15.012132	37.296403
602.100000	15.005426	37.303501
602.200000	14.998728	37.310641
602.300000	14.992036	37.317816
602.400000	14.985351	37.325020
602.500000	14.978673	37.332244
602.600000	14.972002	37.339481
602.700000	14.965336	37.346722
602.800000	14.958677	37.353959
602.900000	14.952025	37.361185
603.000000	14.945378	37.368391
603.100000	14.938737	37.375569
603.200000	14.932103	37.382711
603.300000	14.925474	37.389810
603.400000	14.918851	37.396857
603.500000	14.912233	37.403841
603.600000	14.905621	37.410744
603.700000	14.899015	37.417579
603.800000	14.892413	37.424359
603.900000	14.885817	37.431099
604.000000	14.879227	37.437812
604.100000	14.872641	37.444509
604.200000	14.866060	37.451207
604.300000	14.859484	37.457919
604.400000	14.852913	37.464657
604.500000	14.846347	37.471435
604.600000	14.839785	37.478268
604.700000	14.833227	37.485168
604.800000	14.826674	37.492149
604.900000	14.820125	37.499225
605.000000	14.813581	37.506453
605.100000	14.807040	37.513902
605.200000	14.800504	37.521527
605.300000	14.793971	37.529282
605.400000	14.787442	37.537122
605.500000	14.780917	37.544997
605.600000	14.774396	37.552862
605.700000	14.767877	37.560671
605.800000	14.761363	37.568376
605.900000	14.754851	37.575931
606.000000	14.748343	37.583289
606.100000	14.741838	37.590402
606.200000	14.735336	37.597225
606.300000	14.728837	37.603720
606.400000	14.722341	37.609974
606.500000	14.715847	37.616039
606.600000	14.709356	37.621935
606.700000	14.702868	37.627681
606.800000	14.696382	37.633297
606.900000	14.689899	37.638803
607.000000	14.683417	37.644217
607.100000	14.676938	37.649558
607.200000	14.670461	37.654848
607.300000	14.663985	37.660106
607.400000	14.657512	37.665349
607.500000	14.651040	37.670600
607.600000	14.644571	37.675875
607.700000	14.638102	37.681197
607.800000	14.631635	37.686582
607.900000	14.625170	37.692052
608.000000	14.618705	37.697626
608.100000	14.612242	37.703322
608.200000	14.605780	37.709093
608.300000	14.599319	37.714899
608.400000	14.592859	37.720735
608.500000	14.586399	37.726602
608.600000	14.579941	37.732497
608.700000	14.573482	37.738417
608.800000	14.567025	37.744363
608.900000	14.560568	37.750330
609.000000	14.554111	37.756318
609.100000	14.547654	37.762325
609.200000	14.541197	37.768348
609.300000	14.534741	37.774387
609.400000	14.528284	37.780439
609.500000	14.521827	37.786502
609.600000	14.515370	37.792575
609.700000	14.508912	37.798656
609.800000	14.502454	37.804742
609.900000	14.495996	37.810852
610.000000	14.489539	37.816992
610.100000	14.483084	37.823160
610.200000	14.476630	37.829351
610.300000	14.470178	37.835563
610.400000	14.463728	37.841792
610.500000	14.457279	37.848033
610.600000	14.450832	37.854284
610.700000	14.444386	37.860541
610.800000	14.437942	37.866800
610.900000	14.431499	37.873058
611.000000	14.425059	37.879312
611.100000	14.418620	37.885558
611.200000	14.412182	37.891792
611.300000	14.405747	37.898011
611.400000	14.399312	37.904210
611.500000	14.392880	37.910397
611.600000	14.386449	37.916580
611.700000	14.380021	37.922760
611.800000	14.373593	37.928937
611.900000	14.367168	37.935113
612.000000	14.360744	37.941283
612.100000	14.354322	37.947451
612.200000	14.347902	37.953614
612.300000	14.341484	37.959774
612.400000	14.335067	37.965930
612.500000	14.328652	37.972082
612.600000	14.322239	37.978230
612.700000	14.315828	37.984373
612.800000	14.309418	37.990512
612.900000	14.303011	37.996645
613.000000	14.296605	38.002774
613.100000	14.290201	38.008890
613.200000	14.283799	38.014955
613.300000	14.277399	38.020973
613.400000	14.271001	38.026952
613.500000	14.264605	38.032905
613.600000	14.258210	38.038843
613.700000	14.251818	38.044775
613.800000	14.245427	38.050713
613.900000	14.239038	38.056669
614.000000	14.232651	38.062652
614.100000	14.226267	38.068675
614.200000	14.219884	38.074747
614.300000	14.213503	38.080880
614.400000	14.207124	38.087085
614.500000	14.200747	38.093371
614.600000	14.194372	38.099751
614.700000	14.187999	38.106237
614.800000	14.181628	38.112881
614.900000	14.175259	38.119738
615.000000	14.168892	38.126770
615.100000	14.162528	38.133943
615.200000	14.156165	38.141220
615.300000	14.149804	38.148563
615.400000	14.143446	38.155939
615.500000	14.137089	38.163311
615.600000	14.130735	38.170642
615.700000	14.124382	38.177894
615.800000	14.118032	38.185035
615.900000	14.111684	38.192025
616.000000	14.105338	38.198829
616.100000	14.098994	38.205412
616.200000	14.092653	38.211744
616.300000	14.086313	38.217846
616.400000	14.079976	38.223750
616.500000	14.073641	38.229485
616.600000	14.067308	38.235083
616.700000	14.060977	38.240569
616.800000	14.054648	38.245978
616.900000	14.048322	38.251335
617.000000	14.041998	38.256673
617.100000	14.035676	38.262019
617.200000	14.029356	38.267405
617.300000	14.023039	38.272860
617.400000	14.016724	38.278412
617.500000	14.010411	38.284093
617.600000	14.004101	38.289931
617.700000	13.997792	38.295957
617.800000	13.991487	38.302199
617.900000	13.985184	38.308687
618.000000	13.978884	38.315515
618.100000	13.972587	38.322734
618.200000	13.966293	38.330279
618.300000	13.960001	38.338088
618.400000	13.953712	38.346095
618.500000	13.947425	38.354236
618.600000	13.941141	38.362446
618.700000	13.934860	38.370663
618.800000	13.928581	38.378821
618.900000	13.922305	38.386856
619.000000	13.916031	38.394705
619.100000	13.909759	38.402302
619.200000	13.903490	38.409583
619.300000	13.897223	38.416612
619.400000	13.890958	38.423541
619.500000	13.884696	38.430377
619.600000	13.878436	38.437123
619.700000	13.872178	38.443787
619.800000	13.865923	38.450369
619.900000	13.859669	38.456877
620.000000	13.853418	38.463314
620.100000	13.847168	38.469685
620.200000	13.840921	38.475995
620.300000	13.834676	38.482248
620.400000	13.828433	38.488449
620.500000	13.822191	38.494602
620.600000	13.815952	38.500712
620.700000	13.809714	38.506785
620.800000	13.803479	38.512819
620.900000	13.797245	38.518758
621.000000	13.791013	38.524586
621.100000	13.784782	38.530317
621.200000	13.778554	38.535967
621.300000	13.772327	38.541549
621.400000	13.766101	38.547077
621.500000	13.759878	38.552566
621.600000	13.753656	38.558031
621.700000	13.747435	38.563484
621.800000	13.741216	38.568940
621.900000	13.734999	38.574414
622.000000	13.728782	38.579919
622.100000	13.722568	38.585471
622.200000	13.716354	38.591082
622.300000	13.710143	38.596767
622.400000	13.703932	38.602542
622.500000	13.697723	38.608419
622.600000	13.691514	38.614416
622.700000	13.685308	38.620591
622.800000	13.679102	38.626934
622.900000	13.672897	38.633414
623.000000	13.666694	38.640002
623.100000	13.660492	38.646668
623.200000	13.654290	38.653382
623.300000	13.648090	38.660116
623.400000	13.641891	38.666838
623.500000	13.635693	38.673520
623.600000	13.629495	38.680131
623.700000	13.623299	38.686644
623.800000	13.617103	38.693027
623.900000	13.610908	38.699249
624.000000	13.604714	38.705284
624.100000	13.598521	38.711101
624.200000	13.592329	38.716686
624.300000	13.586137	38.722103
624.400000	13.579946	38.727373
624.500000	13.573755	38.732512
624.600000	13.567565	38.737535
624.700000	13.561376	38.742456
624.800000	13.555187	38.747291
624.900000	13.548998	38.752056
625.000000	13.542811	38.756765
625.100000	13.536623	38.761433
625.200000	13.530436	38.766076
625.300000	13.524249	38.770708
625.400000	13.518063	38.775344
625.500000	13.511877	38.780001
625.600000	13.505691	38.784691
625.700000	13.499505	38.789433
625.800000	13.493319	38.794239
625.900000	13.487132	38.799126
626.000000	13.480945	38.804108
626.100000	13.474757	38.809201
626.200000	13.468569	38.814419
626.300000	13.462380	38.819735
626.400000	13.456191	38.825107
626.500000	13.450001	38.830534
626.600000	13.443811	38.836014
626.700000	13.437621	38.841544
626.800000	13.431431	38.847125
626.900000	13.425241	38.852753
627.000000	13.419051	38.858426
627.100000	13.412861	38.864144
627.200000	13.406672	38.869904
627.300000	13.400482	38.875704
627.400000	13.394293	38.881543
627.500000	13.388104	38.887418
627.600000	13.381916	38.893329
627.700000	13.375728	38.899273
627.800000	13.369540	38.905248
627.900000	13.363354	38.911254
628.000000	13.357168	38.917289
628.100000	13.350983	38.923407
628.200000	13.344798	38.929616
628.300000	13.338615	38.935904
628.400000	13.332432	38.942259
628.500000	13.326251	38.948671
628.600000	13.320071	38.955127
628.700000	13.313892	38.961617
628.800000	13.307714	38.968128
628.900000	13.301538	38.974650
629.000000	13.295362	38.981170
629.100000	13.289189	38.987676
629.200000	13.283017	38.994159
629.300000	13.276846	39.000605
629.400000	13.270677	39.007005
629.500000	13.264510	39.013345
629.600000	13.258345	39.019623
629.700000	13.252182	39.025892
629.800000	13.246020	39.032156
629.900000	13.239861	39.038415
630.000000	13.233703	39.044665
630.100000	13.227548	39.050903
630.200000	13.221395	39.057127
630.300000	13.215244	39.063333
630.400000	13.209096	39.069518
630.500000	13.202950	39.075679
630.600000	13.196806	39.081815
630.700000	13.190665	39.087921
630.800000	13.184527	39.093995
630.900000	13.178391	39.100034
631.000000	13.172258	39.106035
631.100000	13.166128	39.111995
631.200000	13.160001	39.117911
631.300000	13.153876	39.123767
631.400000	13.147755	39.129556
631.500000	13.141637	39.135283
631.600000	13.135522	39.140960
631.700000	13.129410	39.146595
631.800000	13.123302	39.152195
631.900000	13.117196	39.157768
632.000000	13.111095	39.163324
632.100000	13.104997	39.168872
632.200000	13.098902	39.174419
632.300000	13.092811	39.179972
632.400000	13.086724	39.185543
632.500000	13.080640	39.191138
632.600000	13.074560	39.196767
632.700000	13.068485	39.202436
632.800000	13.062413	39.208155
632.900000	13.056345	39.213933
633.000000	13.050281	39.219778
633.100000	13.044222	39.225691
633.200000	13.038167	39.231669
633.300000	13.032116	39.237699
633.400000	13.026069	39.243776
633.500000	13.020027	39.249890
633.600000	13.013989	39.256034
633.700000	13.007956	39.262199
633.800000	13.001928	39.268377
633.900000	12.995905	39.274560
634.000000	12.989888	39.280740
634.100000	12.983878	39.286907
634.200000	12.977874	39.293056
634.300000	12.971876	39.299176
634.400000	12.965885	39.305260
634.500000	12.959899	39.311299
634.600000	12.953919	39.317285
634.700000	12.947944	39.323214
634.800000	12.941976	39.329095
634.900000	12.936012	39.334936
635.000000	12.930053	39.340741
635.100000	12.924100	39.346517
635.200000	12.918152	39.352269
635.300000	12.912208	39.358002
635.400000	12.906269	39.363721
635.500000	12.900334	39.369433
635.600000	12.894404	39.375143
635.700000	12.888478	39.380855
635.800000	12.882556	39.386575
635.900000	12.876638	39.392311
636.000000	12.870724	39.398065
636.100000	12.864813	39.403845
636.200000	12.858906	39.409654
636.300000	12.853002	39.415501
636.400000	12.847102	39.421388
636.500000	12.841204	39.427354
636.600000	12.835310	39.433412
636.700000	12.829418	39.439544
636.800000	12.823529	39.445735
636.900000	12.817642	39.451964
637.000000	12.811758	39.458220
637.100000	12.805876	39.464481
637.200000	12.799996	39.470733
637.300000	12.794118	39.476958
637.400000	12.788242	39.483139
637.500000	12.782368	39.489261
637.600000	12.776495	39.495305
637.700000	12.770623	39.501256
637.800000	12.764753	39.507096
637.900000	12.758884	39.512808
638.000000	12.753015	39.518376
638.100000	12.747148	39.523785
638.200000	12.741281	39.529052
638.300000	12.735415	39.534195
638.400000	12.729549	39.539228
638.500000	12.723683	39.544161
638.600000	12.717818	39.549007
638.700000	12.711952	39.553779
638.800000	12.706087	39.558489
638.900000	12.700220	39.563149
639.000000	12.694354	39.567773
639.100000	12.688487	39.572373
639.200000	12.682619	39.576959
639.300000	12.676750	39.581547
639.400000	12.670881	39.586146
639.500000	12.665010	39.590770
639.600000	12.659138	39.595433
639.700000	12.653264	39.600144
639.800000	12.647389	39.604918
639.900000	12.641512	39.609766
640.000000	12.635633	39.614701
640.100000	12.629753	39.619736
640.200000	12.623870	39.624881
640.300000	12.617984	39.630124
640.400000	12.612097	39.635453
640.500000	12.606207	39.640859
640.600000	12.600314	39.646331
640.700000	12.594418	39.651862
640.800000	12.588519	39.657441
640.900000	12.582617	39.663059
641.000000	12.576712	39.668707
641.100000	12.570804	39.674375
641.200000	12.564891	39.680053
641.300000	12.558976	39.685734
641.400000	12.553056	39.691406
641.500000	12.547132	39.697061
641.600000	12.541204	39.702690
641.700000	12.535272	39.708283
641.800000	12.529336	39.713831
641.900000	12.523395	39.719325
642.000000	12.517449	39.724753
642.100000	12.511499	39.730118
642.200000	12.505543	39.735428
642.300000	12.499583	39.740688
642.400000	12.493617	39.745911
642.500000	12.487648	39.751100
642.600000	12.481675	39.756266
642.700000	12.475697	39.761415
642.800000	12.469716	39.766557
642.900000	12.463732	39.771698
643.000000	12.457743	39.776847
643.100000	12.451751	39.782010
643.200000	12.445756	39.787197
643.300000	12.439758	39.792415
643.400000	12.433756	39.797673
643.500000	12.427751	39.802977
643.600000	12.421744	39.808336
643.700000	12.415733	39.813758
643.800000	12.409720	39.819250
643.900000	12.403704	39.824821
644.000000	12.397686	39.830513
644.100000	12.391665	39.836358
644.200000	12.385642	39.842336
644.300000	12.379616	39.848420
644.400000	12.373589	39.854588
644.500000	12.367559	39.860817
644.600000	12.361528	39.867083
644.700000	12.355495	39.873364
644.800000	12.349460	39.879637
644.900000	12.343424	39.885877
645.000000	12.337386	39.892061
645.100000	12.331347	39.898168
645.200000	12.325306	39.904172
645.300000	12.319264	39.910051
645.400000	12.313222	39.915782
645.500000	12.307178	39.921340
645.600000	12.301133	39.926705
645.700000	12.295088	39.931886
645.800000	12.289042	39.936913
645.900000	12.282996	39.941803
646.000000	12.276949	39.946571
646.100000	12.270902	39.951232
646.200000	12.264855	39.955805
646.300000	12.258807	39.960302
646.400000	12.252760	39.964741
646.500000	12.246713	39.969139
646.600000	12.240666	39.973510
646.700000	12.234619	39.977870
646.800000	12.228573	39.982236
646.900000	12.222527	39.986623
647.000000	12.216482	39.991048
647.100000	12.210437	39.995525
647.200000	12.204394	40.000072
647.300000	12.198351	40.004704
647.400000	12.192310	40.009437
647.500000	12.186269	40.014288
647.600000	12.180230	40.019270
647.700000	12.174193	40.024402
647.800000	12.168157	40.029703
647.900000	12.162122	40.035208
648.000000	12.156089	40.040903
648.100000	12.150058	40.046763
648.200000	12.144029	40.052764
648.300000	12.138002	40.058883
648.400000	12.131977	40.065095
648.500000	12.125954	40.071376
648.600000	12.119934	40.077701
648.700000	12.113916	40.084048
648.800000	12.107900	40.090391
648.900000	12.101887	40.096706
649.000000	12.095877	40.102970
649.100000	12.089870	40.109159
649.200000	12.083866	40.115247
649.300000	12.077865	40.121213
649.400000	12.071867	40.127030
649.500000	12.065872	40.132705
649.600000	12.059881	40.138297
649.700000	12.053893	40.143818
649.800000	12.047909	40.149275
649.900000	12.041929	40.154676
650.000000	12.035952	40.160029
650.100000	12.029979	40.165343
650.200000	12.024011	40.170625
650.300000	12.018046	40.175883
650.400000	12.012086	40.181127
650.500000	12.006130	40.186362
650.600000	12.000178	40.191597
650.700000	11.994221	40.196842
650.800000	11.988246	40.202103
650.900000	11.982253	40.207389
651.000000	11.976245	40.212707
651.100000	11.970221	40.218067
651.200000	11.964182	40.223475
651.300000	11.958128	40.228940
651.400000	11.952062	40.234465
651.500000	11.945982	40.240043
651.600000	11.939891	40.245668
651.700000	11.933788	40.251329
651.800000	11.927675	40.257024
651.900000	11.921551	40.262741
652.000000	11.915419	40.268475
652.100000	11.909278	40.274218
652.200000	11.903129	40.279965
652.300000	11.896973	40.285707
652.400000	11.890810	40.291435
652.500000	11.884642	40.297146
652.600000	11.878468	40.302830
652.700000	11.872291	40.308479
652.800000	11.866110	40.314089
652.900000	11.859926	40.319650
653.000000	11.853739	40.325157
653.100000	11.847551	40.330600
653.200000	11.841363	40.335982
653.300000	11.835174	40.341311
653.400000	11.828986	40.346593
653.500000	11.822799	40.351833
653.600000	11.816614	40.357035
653.700000	11.810432	40.362207
653.800000	11.804254	40.367354
653.900000	11.798079	40.372480
654.000000	11.791910	40.377592
654.100000	11.785746	40.382694
654.200000	11.779588	40.387793
654.300000	11.773437	40.392892
654.400000	11.767293	40.398000
654.500000	11.761159	40.403120
654.600000	11.755033	40.408259
654.700000	11.748917	40.413420
654.800000	11.742811	40.418611
654.900000	11.736716	40.423836
655.000000	11.730634	40.429102
655.100000	11.724564	40.434411
655.200000	11.718507	40.439760
655.300000	11.712464	40.445143
655.400000	11.706436	40.450556
655.500000	11.700423	40.455993
655.600000	11.694427	40.461452
655.700000	11.688447	40.466928
655.800000	11.682485	40.472415
655.900000	11.676540	40.477910
656.000000	11.670615	40.483408
656.100000	11.664710	40.488904
656.200000	11.658824	40.494395
656.300000	11.652960	40.499876
656.400000	11.647117	40.505342
656.500000	11.641297	40.510789
656.600000	11.635500	40.516213
656.700000	11.629727	40.521609
656.800000	11.623978	40.526972
656.900000	11.618255	40.532300
657.000000	11.612557	40.537596
657.100000	11.606887	40.542878
657.200000	11.601243	40.548146
657.300000	11.595628	40.553398
657.400000	11.590041	40.558637
657.500000	11.584484	40.563861
657.600000	11.578957	40.569073
657.700000	11.573461	40.574272
657.800000	11.567996	40.579459
657.900000	11.562564	40.584634
658.000000	11.557164	40.589797
658.100000	11.551799	40.594950
658.200000	11.546467	40.600092
658.300000	11.541171	40.605224
658.400000	11.535911	40.610347
658.500000	11.530687	40.615461
658.600000	11.525500	40.620566
658.700000	11.520351	40.625663
658.800000	11.515241	40.630753
658.900000	11.510170	40.635836
659.000000	11.505139	40.640914
659.100000	11.500149	40.645991
659.200000	11.495197	40.651063
659.300000	11.490280	40.656128
659.400000	11.485396	40.661188
659.500000	11.480546	40.666239
659.600000	11.475729	40.671282
659.700000	11.470944	40.676314
659.800000	11.466190	40.681335
659.900000	11.461468	40.686344
660.000000	11.456776	40.691340
660.100000	11.452113	40.696321
660.200000	11.447481	40.701286
660.300000	11.442877	40.706235
660.400000	11.438301	40.711166
660.500000	11.433753	40.716078
660.600000	11.429231	40.720968
660.700000	11.424737	40.725839
660.800000	11.420268	40.730686
660.900000	11.415824	40.735510
661.000000	11.411406	40.740313
661.100000	11.407011	40.745095
661.200000	11.402640	40.749859
661.300000	11.398292	40.754604
661.400000	11.393966	40.759332
661.500000	11.389662	40.764042
661.600000	11.385380	40.768738
661.700000	11.381118	40.773417
661.800000	11.376876	40.778084
661.900000	11.372654	40.782736
662.000000	11.368451	40.787375
662.100000	11.364266	40.792003
662.200000	11.360099	40.796619
662.300000	11.355949	40.801224
662.400000	11.351816	40.805821
662.500000	11.347699	40.810407
662.600000	11.343598	40.814987
662.700000	11.339511	40.819558
662.800000	11.335439	40.824123
662.900000	11.331381	40.828683
663.000000	11.327336	40.833238
663.100000	11.323304	40.837785
663.200000	11.319283	40.842295
663.300000	11.315274	40.846768
663.400000	11.311277	40.851206
663.500000	11.307289	40.855617
663.600000	11.303311	40.860004
663.700000	11.299343	40.864373
663.800000	11.295383	40.868727
663.900000	11.291431	40.873070
664.000000	11.287486	40.877410
664.100000	11.283549	40.881750
664.200000	11.279617	40.886095
664.300000	11.275692	40.890450
664.400000	11.271771	40.894819
664.500000	11.267856	40.899208
664.600000	11.263944	40.903620
664.700000	11.260036	40.908061
664.800000	11.256130	40.912537
664.900000	11.252227	40.917050
665.000000	11.248326	40.921606
665.100000	11.244426	40.926211
665.200000	11.240526	40.930868
665.300000	11.236626	40.935583
665.400000	11.232726	40.940369
665.500000	11.228825	40.945245
665.600000	11.224921	40.950204
665.700000	11.221016	40.955235
665.800000	11.217108	40.960329
665.900000	11.213196	40.965475
666.000000	11.209280	40.970665
666.100000	11.205359	40.975888
666.200000	11.201434	40.981135
666.300000	11.197502	40.986395
666.400000	11.193565	40.991660
666.500000	11.189620	40.996918
666.600000	11.185668	41.002161
666.700000	11.181708	41.007378
666.800000	11.177739	41.012558
666.900000	11.173761	41.017695
667.000000	11.169773	41.022776
667.100000	11.165775	41.027793
667.200000	11.161766	41.032736
667.300000	11.157745	41.037593
667.400000	11.153712	41.042357
667.500000	11.149667	41.047034
667.600000	11.145609	41.051631
667.700000	11.141536	41.056160
667.800000	11.137449	41.060629
667.900000	11.133348	41.065050
668.000000	11.129230	41.069430
668.100000	11.125097	41.073781
668.200000	11.120947	41.078111
668.300000	11.116779	41.082432
668.400000	11.112594	41.086751
668.500000	11.108390	41.091081
668.600000	11.104168	41.095429
668.700000	11.099926	41.099806
668.800000	11.095663	41.104222
668.900000	11.091380	41.108685
669.000000	11.087076	41.113208
669.100000	11.082750	41.117799
669.200000	11.078401	41.122466
669.300000	11.074030	41.127222
669.400000	11.069634	41.132074
669.500000	11.065215	41.137035
669.600000	11.060771	41.142124
669.700000	11.056301	41.147384
669.800000	11.051806	41.152801
669.900000	11.047284	41.158357
670.000000	11.042735	41.164030
670.100000	11.038159	41.169799
670.200000	11.033554	41.175645
670.300000	11.028921	41.181547
670.400000	11.024258	41.187486
670.500000	11.019565	41.193441
670.600000	11.014842	41.199392
670.700000	11.010088	41.205317
670.800000	11.005302	41.211200
670.900000	11.000484	41.217016
671.000000	10.995633	41.222748
671.100000	10.990752	41.228374
671.200000	10.985840	41.233875
671.300000	10.980898	41.239231
671.400000	10.975927	41.244456
671.500000	10.970927	41.249610
671.600000	10.965898	41.254702
671.700000	10.960841	41.259735
671.800000	10.955757	41.264714
671.900000	10.950646	41.269644
672.000000	10.945508	41.274531
672.100000	10.940345	41.279379
672.200000	10.935156	41.284194
672.300000	10.929942	41.288980
672.400000	10.924704	41.293743
672.500000	10.919443	41.298488
672.600000	10.914157	41.303219
672.700000	10.908849	41.307941
672.800000	10.903519	41.312661
672.900000	10.898167	41.317382
673.000000	10.892794	41.322111
673.100000	10.887399	41.326850
673.200000	10.881985	41.331607
673.300000	10.876551	41.336385
673.400000	10.871098	41.341191
673.500000	10.865626	41.346021
673.600000	10.860135	41.350869
673.700000	10.854628	41.355730
673.800000	10.849103	41.360601
673.900000	10.843561	41.365480
674.000000	10.838003	41.370361
674.100000	10.832430	41.375244
674.200000	10.826841	41.380124
674.300000	10.821238	41.384997
674.400000	10.815621	41.389862
674.500000	10.809990	41.394713
674.600000	10.804346	41.399548
674.700000	10.798690	41.404364
674.800000	10.793022	41.409157
674.900000	10.787342	41.413925
675.000000	10.781651	41.418664
675.100000	10.775950	41.423370
675.200000	10.770239	41.428039
675.300000	10.764518	41.432671
675.400000	10.758789	41.437259
675.500000	10.753051	41.441802
675.600000	10.747305	41.446289
675.700000	10.741551	41.450710
675.800000	10.735791	41.455073
675.900000	10.730025	41.459383
676.000000	10.724252	41.463647
676.100000	10.718475	41.467872
676.200000	10.712692	41.472061
676.300000	10.706905	41.476224
676.400000	10.701115	41.480365
676.500000	10.695321	41.484490
676.600000	10.689524	41.488607
676.700000	10.683726	41.492720
676.800000	10.677925	41.496837
676.900000	10.672123	41.500963
677.000000	10.666321	41.505105
677.100000	10.660518	41.509269
677.200000	10.654716	41.513461
677.300000	10.648914	41.517687
677.400000	10.643114	41.521953
677.500000	10.637316	41.526267
677.600000	10.631520	41.530633
677.700000	10.625727	41.535059
677.800000	10.619937	41.539549
677.900000	10.614152	41.544112
678.000000	10.608371	41.548769
678.100000	10.602594	41.553521
678.200000	10.596824	41.558357
678.300000	10.591059	41.563267
678.400000	10.585300	41.568241
678.500000	10.579549	41.573268
678.600000	10.573805	41.578337
678.700000	10.568070	41.583437
678.800000	10.562343	41.588558
678.900000	10.556625	41.593689
679.000000	10.550916	41.598821
679.100000	10.545218	41.603941
679.200000	10.539530	41.609039
679.300000	10.533853	41.614104
679.400000	10.528188	41.619127
679.500000	10.522535	41.624097
679.600000	10.516895	41.629002
679.700000	10.511268	41.633833
679.800000	10.505655	41.638577
679.900000	10.500056	41.643226
680.000000	10.494463	41.647783
680.100000	10.488867	41.652286
680.200000	10.483268	41.656738
680.300000	10.477667	41.661144
680.400000	10.472063	41.665506
680.500000	10.466457	41.669829
680.600000	10.460848	41.674115
680.700000	10.455236	41.678369
680.800000	10.449623	41.682594
680.900000	10.444007	41.686793
681.000000	10.438389	41.690969
681.100000	10.432769	41.695127
681.200000	10.427146	41.699269
681.300000	10.421522	41.703400
681.400000	10.415896	41.707522
681.500000	10.410269	41.711640
681.600000	10.404639	41.715755
681.700000	10.399008	41.719874
681.800000	10.393376	41.723996
681.900000	10.387741	41.728129
682.000000	10.382106	41.732275
682.100000	10.376469	41.736436
682.200000	10.370831	41.740616
682.300000	10.365192	41.744819
682.400000	10.359551	41.749035
682.500000	10.353910	41.753238
682.600000	10.348267	41.757432
682.700000	10.342624	41.761616
682.800000	10.336980	41.765792
682.900000	10.331335	41.769963
683.000000	10.325689	41.774130
683.100000	10.320043	41.778294
683.200000	10.314396	41.782458
683.300000	10.308749	41.786621
683.400000	10.303102	41.790787
683.500000	10.297454	41.794957
683.600000	10.291806	41.799132
683.700000	10.286158	41.803315
683.800000	10.280510	41.807505
683.900000	10.274862	41.811706
684.000000	10.269214	41.815918
684.100000	10.263566	41.820143
684.200000	10.257918	41.824384
684.300000	10.252270	41.828641
684.400000	10.246623	41.832915
684.500000	10.240977	41.837210
684.600000	10.235331	41.841525
684.700000	10.229685	41.845863
684.800000	10.224041	41.850226
684.900000	10.218397	41.854614
685.000000	10.212754	41.859024
685.100000	10.207111	41.863455
685.200000	10.201470	41.867906
685.300000	10.195830	41.872375
685.400000	10.190191	41.876860
685.500000	10.184553	41.881359
685.600000	10.178916	41.885871
685.700000	10.173281	41.890394
685.800000	10.167647	41.894926
685.900000	10.162015	41.899466
686.000000	10.156384	41.904011
686.100000	10.150755	41.908561
686.200000	10.145127	41.913113
686.300000	10.139502	41.917666
686.400000	10.133878	41.922218
686.500000	10.128256	41.926767
686.600000	10.122637	41.931312
686.700000	10.117019	41.935851
686.800000	10.111404	41.940382
686.900000	10.105790	41.944904
687.000000	10.100180	41.949416
687.100000	10.094571	41.953935
687.200000	10.088965	41.958463
687.300000	10.083362	41.962998
687.400000	10.077761	41.967539
687.500000	10.072163	41.972085
687.600000	10.066567	41.976635
687.700000	10.060975	41.981186
687.800000	10.055385	41.985739
687.900000	10.049799	41.990290
688.000000	10.044215	41.994839
688.100000	10.038635	41.999385
688.200000	10.033058	42.003926
688.300000	10.027484	42.008461
688.400000	10.021913	42.012988
688.500000	10.016346	42.017506
688.600000	10.010783	42.022014
688.700000	10.005223	42.026509
688.800000	9.999667	42.030992
688.900000	9.994115	42.035460
689.000000	9.988570	42.039912
689.100000	9.983030	42.044347
689.200000	9.977496	42.048762
689.300000	9.971967	42.053153
689.400000	9.966444	42.057513
689.500000	9.960925	42.061845
689.600000	9.955411	42.066155
689.700000	9.949903	42.070444
689.800000	9.944398	42.074715
689.900000	9.938899	42.078972
690.000000	9.933403	42.083217
690.100000	9.927912	42.087454
690.200000	9.922425	42.091686
690.300000	9.916942	42.095915
690.400000	9.911462	42.100145
690.500000	9.905986	42.104379
690.600000	9.900514	42.108620
690.700000	9.895045	42.112871
690.800000	9.889579	42.117135
690.900000	9.884116	42.121415
691.000000	9.878656	42.125713
691.100000	9.873198	42.130035
691.200000	9.867743	42.134381
691.300000	9.862291	42.138756
691.400000	9.856840	42.143162
691.500000	9.851392	42.147603
691.600000	9.845946	42.152084
691.700000	9.840502	42.156623
691.800000	9.835059	42.161216
691.900000	9.829618	42.165857
692.000000	9.824178	42.170538
692.100000	9.818739	42.175255
692.200000	9.813302	42.179999
692.300000	9.807865	42.184764
692.400000	9.802429	42.189546
692.500000	9.796994	42.194336
692.600000	9.791559	42.199128
692.700000	9.786125	42.203916
692.800000	9.780690	42.208693
692.900000	9.775256	42.213454
693.000000	9.769822	42.218190
693.100000	9.764387	42.222895
693.200000	9.758952	42.227565
693.300000	9.753516	42.232192
693.400000	9.748080	42.236768
693.500000	9.742643	42.241289
693.600000	9.737204	42.245747
693.700000	9.731765	42.250136
693.800000	9.726324	42.254454
693.900000	9.720882	42.258705
694.000000	9.715438	42.262897
694.100000	9.709992	42.267035
694.200000	9.704545	42.271124
694.300000	9.699095	42.275170
694.400000	9.693643	42.279178
694.500000	9.688189	42.283155
694.600000	9.682733	42.287107
694.700000	9.677273	42.291036
694.800000	9.671811	42.294953
694.900000	9.666346	42.298859
695.000000	9.660878	42.302761
695.100000	9.655406	42.306667
695.200000	9.649932	42.310579
695.300000	9.644453	42.314505
695.400000	9.638971	42.318450
695.500000	9.633485	42.322419
695.600000	9.627995	42.326418
695.700000	9.622501	42.330453
695.800000	9.617003	42.334530
695.900000	9.611500	42.338654
696.000000	9.605992	42.342830
696.100000	9.600480	42.347063
696.200000	9.594963	42.351362
696.300000	9.589441	42.355728
696.400000	9.583914	42.360157
696.500000	9.578381	42.364645
696.600000	9.572843	42.369185
696.700000	9.567300	42.373773
696.800000	9.561750	42.378404
696.900000	9.556195	42.383070
697.000000	9.550633	42.387768
697.100000	9.545065	42.392492
697.200000	9.539491	42.397237
697.300000	9.533911	42.401997
697.400000	9.528323	42.406766
697.500000	9.522729	42.411541
697.600000	9.517128	42.416314
697.700000	9.511520	42.421082
697.800000	9.505904	42.425837
697.900000	9.500281	42.430576
698.000000	9.494651	42.435292
698.100000	9.489013	42.439980
698.200000	9.483367	42.444636
698.300000	9.477715	42.449253
698.400000	9.472055	42.453828
698.500000	9.466388	42.458394
698.600000	9.460715	42.462968
698.700000	9.455035	42.467548
698.800000	9.449348	42.472131
698.900000	9.443656	42.476713
699.000000	9.437957	42.481294
699.100000	9.432252	42.485869
699.200000	9.426541	42.490436
699.300000	9.420824	42.494994
699.400000	9.415102	42.499538
699.500000	9.409374	42.504066
699.600000	9.403641	42.508576
699.700000	9.397903	42.513066
699.800000	9.392160	42.517532
699.900000	9.386412	42.521972
700.000000	9.380660	42.526382
700.100000	9.374903	42.530762
700.200000	9.369142	42.535107
700.300000	9.363376	42.539416
700.400000	9.357606	42.543686
700.500000	9.351833	42.547913
700.600000	9.346056	42.552096
700.700000	9.340275	42.556232
700.800000	9.334490	42.560321
700.900000	9.328703	42.564366
701.000000	9.322912	42.568369
701.100000	9.317118	42.572334
701.200000	9.311321	42.576264
701.300000	9.305522	42.580163
701.400000	9.299720	42.584032
701.500000	9.293915	42.587875
701.600000	9.288109	42.591696
701.700000	9.282300	42.595497
701.800000	9.276489	42.599281
701.900000	9.270677	42.603050
702.000000	9.264862	42.606809
702.100000	9.259047	42.610560
702.200000	9.253230	42.614306
702.300000	9.247411	42.618052
702.400000	9.241592	42.621798
702.500000	9.235772	42.625548
702.600000	9.229951	42.629306
702.700000	9.224129	42.633074
702.800000	9.218307	42.636856
702.900000	9.212485	42.640654
703.000000	9.206662	42.644471
703.100000	9.200840	42.648312
703.200000	9.195018	42.652178
703.300000	9.189196	42.656071
703.400000	9.183374	42.659973
703.500000	9.177553	42.663876
703.600000	9.171733	42.667780
703.700000	9.165914	42.671688
703.800000	9.160095	42.675597
703.900000	9.154278	42.679509
704.000000	9.148463	42.683426
704.100000	9.142649	42.687346
704.200000	9.136836	42.691271
704.300000	9.131025	42.695199
704.400000	9.125217	42.699134
704.500000	9.119410	42.703074
704.600000	9.113606	42.707020
704.700000	9.107804	42.710974
704.800000	9.102004	42.714934
704.900000	9.096208	42.718902
705.000000	9.090414	42.722878
705.100000	9.084623	42.726862
705.200000	9.078835	42.730855
705.300000	9.073051	42.734857
705.400000	9.067270	42.738870
705.500000	9.061493	42.742892
705.600000	9.055719	42.746926
705.700000	9.049950	42.750971
705.800000	9.044184	42.755026
705.900000	9.038423	42.759095
706.000000	9.032666	42.763177
706.100000	9.026914	42.767271
706.200000	9.021166	42.771377
706.300000	9.015423	42.775495
706.400000	9.009685	42.779622
706.500000	9.003953	42.783761
706.600000	8.998225	42.787910
706.700000	8.992502	42.792068
706.800000	8.986785	42.796234
706.900000	8.981071	42.800409
707.000000	8.975362	42.804591
707.100000	8.969658	42.808781
707.200000	8.963958	42.812978
707.300000	8.958261	42.817180
707.400000	8.952569	42.821389
707.500000	8.946881	42.825602
707.600000	8.941196	42.829821
707.700000	8.935514	42.834042
707.800000	8.929836	42.838269
707.900000	8.924162	42.842498
708.000000	8.918490	42.846728
708.100000	8.912822	42.850962
708.200000	8.907156	42.855197
708.300000	8.901493	42.859434
708.400000	8.895833	42.863673
708.500000	8.890175	42.867917
708.600000	8.884519	42.872165
708.700000	8.878866	42.876418
708.800000	8.873215	42.880675
708.900000	8.867565	42.884937
709.000000	8.861918	42.889204
709.100000	8.856272	42.893476
709.200000	8.850627	42.897754
709.300000	8.844984	42.902037
709.400000	8.839343	42.906325
709.500000	8.833702	42.910620
709.600000	8.828063	42.914920
709.700000	8.822424	42.919226
709.800000	8.816786	42.923538
709.900000	8.811149	42.927858
710.000000	8.805512	42.932183
710.100000	8.799875	42.936516
710.200000	8.794239	42.940855
710.300000	8.788603	42.945202
710.400000	8.782967	42.949556
710.500000	8.777330	42.953917
710.600000	8.771693	42.958286
710.700000	8.766056	42.962674
710.800000	8.760418	42.967086
710.900000	8.754780	42.971522
711.000000	8.749140	42.975978
711.100000	8.743500	42.980450
711.200000	8.737858	42.984938
711.300000	8.732215	42.989437
711.400000	8.726571	42.993944
711.500000	8.720925	42.998458
711.600000	8.715278	43.002973
711.700000	8.709629	43.007489
711.800000	8.703978	43.012001
711.900000	8.698325	43.016508
712.000000	8.692669	43.021005
712.100000	8.687012	43.025491
712.200000	8.681352	43.029963
712.300000	8.675689	43.034416
712.400000	8.670024	43.038849
712.500000	8.664355	43.043258
712.600000	8.658684	43.047643
712.700000	8.653010	43.051997
712.800000	8.647332	43.056319
712.900000	8.641651	43.060607
713.000000	8.635967	43.064868
713.100000	8.630279	43.069106
713.200000	8.624587	43.073324
713.300000	8.618891	43.077520
713.400000	8.613191	43.081699
713.500000	8.607487	43.085861
713.600000	8.601779	43.090007
713.700000	8.596066	43.094139
713.800000	8.590349	43.098256
713.900000	8.584627	43.102364
714.000000	8.578900	43.106460
714.100000	8.573168	43.110547
714.200000	8.567431	43.114627
714.300000	8.561689	43.118700
714.400000	8.555941	43.122769
714.500000	8.550188	43.126834
714.600000	8.544429	43.130897
714.700000	8.538665	43.134959
714.800000	8.532894	43.139022
714.900000	8.527118	43.143087
715.000000	8.521335	43.147155
715.100000	8.515546	43.151228
715.200000	8.509751	43.155307
715.300000	8.503949	43.159393
715.400000	8.498141	43.163480
715.500000	8.492327	43.167547
715.600000	8.486510	43.171595
715.700000	8.480688	43.175628
715.800000	8.474862	43.179648
715.900000	8.469032	43.183658
716.000000	8.463198	43.187658
716.100000	8.457360	43.191653
716.200000	8.451517	43.195645
716.300000	8.445671	43.199637
716.400000	8.439821	43.203630
716.500000	8.433967	43.207626
716.600000	8.428110	43.211629
716.700000	8.422248	43.215642
716.800000	8.416383	43.219666
716.900000	8.410514	43.223704
717.000000	8.404641	43.227758
717.100000	8.398765	43.231831
717.200000	8.392886	43.235924
717.300000	8.387002	43.240043
717.400000	8.381115	43.244186
717.500000	8.375225	43.248360
717.600000	8.369332	43.252563
717.700000	8.363435	43.256800
717.800000	8.357534	43.261073
717.900000	8.351631	43.265389
718.000000	8.345724	43.269752
718.100000	8.339814	43.274158
718.200000	8.333901	43.278604
718.300000	8.327985	43.283084
718.400000	8.322065	43.287597
718.500000	8.316143	43.292138
718.600000	8.310218	43.296702
718.700000	8.304289	43.301288
718.800000	8.298358	43.305888
718.900000	8.292424	43.310502
719.000000	8.286487	43.315124
719.100000	8.280548	43.319751
719.200000	8.274606	43.324379
719.300000	8.268661	43.329004
719.400000	8.262713	43.333621
719.500000	8.256763	43.338229
719.600000	8.250810	43.342822
719.700000	8.244855	43.347396
719.800000	8.238897	43.351948
719.900000	8.232936	43.356474
720.000000	8.226974	43.360971
720.100000	8.221009	43.365439
720.200000	8.215042	43.369895
720.300000	8.209072	43.374343
720.400000	8.203100	43.378782
720.500000	8.197126	43.383213
720.600000	8.191150	43.387635
720.700000	8.185172	43.392051
720.800000	8.179192	43.396460
720.900000	8.173209	43.400862
721.000000	8.167225	43.405260
721.100000	8.161239	43.409651
721.200000	8.155251	43.414038
721.300000	8.149261	43.418422
721.400000	8.143269	43.422801
721.500000	8.137276	43.427176
721.600000	8.131281	43.431550
721.700000	8.125284	43.435922
721.800000	8.119285	43.440291
721.900000	8.113285	43.444659
722.000000	8.107284	43.449027
722.100000	8.101280	43.453395
722.200000	8.095276	43.457763
722.300000	8.089270	43.462131
722.400000	8.083262	43.466504
722.500000	8.077253	43.470887
722.600000	8.071243	43.475277
722.700000	8.065232	43.479676
722.800000	8.059219	43.484078
722.900000	8.053206	43.488485
723.000000	8.047191	43.492894
723.100000	8.041175	43.497301
723.200000	8.035158	43.501707
723.300000	8.029140	43.506108
723.400000	8.023121	43.510504
723.500000	8.017101	43.514892
723.600000	8.011080	43.519271
723.700000	8.005059	43.523638
723.800000	7.999036	43.527993
723.900000	7.993015	43.532333
724.000000	7.986997	43.536657
724.100000	7.980981	43.540962
724.200000	7.974967	43.545248
724.300000	7.968955	43.549511
724.400000	7.962945	43.553750
724.500000	7.956936	43.557963
724.600000	7.950929	43.562149
724.700000	7.944924	43.566306
724.800000	7.938919	43.570436
724.900000	7.932915	43.574539
725.000000	7.926912	43.578618
725.100000	7.920910	43.582675
725.200000	7.914908	43.586711
725.300000	7.908906	43.590728
725.400000	7.902905	43.594728
725.500000	7.896903	43.598711
725.600000	7.890901	43.602680
725.700000	7.884899	43.606636
725.800000	7.878896	43.610582
725.900000	7.872892	43.614519
726.000000	7.866887	43.618447
726.100000	7.860881	43.622371
726.200000	7.854874	43.626289
726.300000	7.848865	43.630206
726.400000	7.842855	43.634122
726.500000	7.836843	43.638038
726.600000	7.830828	43.641957
726.700000	7.824812	43.645880
726.800000	7.818793	43.649809
726.900000	7.812772	43.653745
727.000000	7.806748	43.657691
727.100000	7.800721	43.661648
727.200000	7.794691	43.665617
727.300000	7.788658	43.669598
727.400000	7.782622	43.673587
727.500000	7.776582	43.677585
727.600000	7.770538	43.681590
727.700000	7.764490	43.685599
727.800000	7.758438	43.689613
727.900000	7.752382	43.693631
728.000000	7.746322	43.697649
728.100000	7.740256	43.701670
728.200000	7.734187	43.705688
728.300000	7.728112	43.709706
728.400000	7.722032	43.713721
728.500000	7.715947	43.717731
728.600000	7.709856	43.721737
728.700000	7.703759	43.725735
728.800000	7.697657	43.729726
728.900000	7.691549	43.733708
729.000000	7.685435	43.737681
729.100000	7.679314	43.741642
729.200000	7.673187	43.745590
729.300000	7.667053	43.749525
729.400000	7.660912	43.753445
729.500000	7.654764	43.757349
729.600000	7.648609	43.761236
729.700000	7.642447	43.765104
729.800000	7.636277	43.768951
729.900000	7.630099	43.772762
730.000000	7.623914	43.776541
730.100000	7.617720	43.780291
730.200000	7.611518	43.784014
730.300000	7.605308	43.787713
730.400000	7.599089	43.791393
730.500000	7.592861	43.795056
730.600000	7.586625	43.798704
730.700000	7.580379	43.802343
730.800000	7.574124	43.805974
730.900000	7.567859	43.809601
731.000000	7.561585	43.813227
731.100000	7.555301	43.816855
731.200000	7.549007	43.820488
731.300000	7.542703	43.824131
731.400000	7.536389	43.827785
731.500000	7.530064	43.831454
731.600000	7.523729	43.835141
731.700000	7.517382	43.838850
731.800000	7.511025	43.842584
731.900000	7.504656	43.846345
732.000000	7.498276	43.850137
732.100000	7.491880	43.853962
732.200000	7.485465	43.857826
732.300000	7.479034	43.861729
732.400000	7.472586	43.865677
732.500000	7.466121	43.869672
732.600000	7.459640	43.873716
732.700000	7.453144	43.877807
732.800000	7.446632	43.881942
732.900000	7.440106	43.886116
733.000000	7.433565	43.890326
733.100000	7.427011	43.894571
733.200000	7.420443	43.898845
733.300000	7.413861	43.903146
733.400000	7.407267	43.907469
733.500000	7.400661	43.911812
733.600000	7.394043	43.916171
733.700000	7.387414	43.920544
733.800000	7.380773	43.924926
733.900000	7.374122	43.929313
734.000000	7.367460	43.933704
734.100000	7.360789	43.938094
734.200000	7.354108	43.942479
734.300000	7.347419	43.946858
734.400000	7.340721	43.951225
734.500000	7.334014	43.955578
734.600000	7.327300	43.959913
734.700000	7.320579	43.964227
734.800000	7.313851	43.968517
734.900000	7.307116	43.972786
735.000000	7.300376	43.977042
735.100000	7.293629	43.981288
735.200000	7.286878	43.985526
735.300000	7.280121	43.989756
735.400000	7.273360	43.993981
735.500000	7.266596	43.998200
735.600000	7.259827	44.002418
735.700000	7.253056	44.006632
735.800000	7.246282	44.010848
735.900000	7.239505	44.015064
736.000000	7.232726	44.019284
736.100000	7.225946	44.023507
736.200000	7.219165	44.027736
736.300000	7.212384	44.031972
736.400000	7.205602	44.036217
736.500000	7.198820	44.040472
736.600000	7.192039	44.044739
736.700000	7.185258	44.049018
736.800000	7.178479	44.053312
736.900000	7.171702	44.057621
737.000000	7.164928	44.061949
737.100000	7.158156	44.066294
737.200000	7.151387	44.070660
737.300000	7.144621	44.075046
737.400000	7.137859	44.079454
737.500000	7.131102	44.083879
737.600000	7.124349	44.088321
737.700000	7.117602	44.092779
737.800000	7.110860	44.097251
737.900000	7.104124	44.101736
738.000000	7.097394	44.106232
738.100000	7.090672	44.110738
738.200000	7.083956	44.115253
738.300000	7.077248	44.119775
738.400000	7.070548	44.124303
738.500000	7.063857	44.128835
738.600000	7.057174	44.133370
738.700000	7.050501	44.137906
738.800000	7.043838	44.142442
738.900000	7.037184	44.146977
739.000000	7.030541	44.151509
739.100000	7.023909	44.156037
739.200000	7.017289	44.160560
739.300000	7.010680	44.165075
739.400000	7.004084	44.169582
739.500000	6.997502	44.174083
739.600000	6.990964	44.178589
739.700000	6.984475	44.183103
739.800000	6.978033	44.187621
739.900000	6.971636	44.192143
740.000000	6.965282	44.196668
740.100000	6.958969	44.201195
740.200000	6.952695	44.205723
740.300000	6.946459	44.210252
740.400000	6.940258	44.214780
740.500000	6.934091	44.219305
740.600000	6.927955	44.223827
740.700000	6.921849	44.228346
740.800000	6.915771	44.232861
740.900000	6.909719	44.237369
741.000000	6.903691	44.241870
741.100000	6.897685	44.246364
741.200000	6.891699	44.250848
741.300000	6.885731	44.255322
741.400000	6.879780	44.259786
741.500000	6.873843	44.264238
741.600000	6.867918	44.268677
741.700000	6.862004	44.273103
741.800000	6.856099	44.277507
741.900000	6.850201	44.281887
742.000000	6.844308	44.286248
742.100000	6.838417	44.290590
742.200000	6.832528	44.294918
742.300000	6.826637	44.299231
742.400000	6.820744	44.303535
742.500000	6.814847	44.307830
742.600000	6.808942	44.312120
742.700000	6.803030	44.316407
742.800000	6.797106	44.320693
742.900000	6.791171	44.324981
743.000000	6.785221	44.329273
743.100000	6.779255	44.333572
743.200000	6.773271	44.337880
743.300000	6.767267	44.342199
743.400000	6.761242	44.346533
743.500000	6.755192	44.350883
743.600000	6.749117	44.355253
743.700000	6.743014	44.359644
743.800000	6.736882	44.364058
743.900000	6.730718	44.368499
744.000000	6.724521	44.372969
744.100000	6.718288	44.377465
744.200000	6.712019	44.381977
744.300000	6.705710	44.386506
744.400000	6.699361	44.391052
744.500000	6.692968	44.395613
744.600000	6.686531	44.400189
744.700000	6.680047	44.404780
744.800000	6.673514	44.409385
744.900000	6.666931	44.414003
745.000000	6.660296	44.418634
745.100000	6.653606	44.423277
745.200000	6.646860	44.427932
745.300000	6.640055	44.432599
745.400000	6.633191	44.437275
745.500000	6.626264	44.441963
745.600000	6.619274	44.446658
745.700000	6.612218	44.451363
745.800000	6.605094	44.456077
745.900000	6.597900	44.460798
746.000000	6.590635	44.465525
746.100000	6.583296	44.470261
746.200000	6.575882	44.475002
746.300000	6.568391	44.479758
746.400000	6.560821	44.484534
746.500000	6.553169	44.489329
746.600000	6.545434	44.494140
746.700000	6.537615	44.498966
746.800000	6.529709	44.503806
746.900000	6.521713	44.508657
747.000000	6.513628	44.513519
747.100000	6.505449	44.518388
747.200000	6.497172	44.523266
747.300000	6.488743	44.528147
747.400000	6.480150	44.533032
747.500000	6.471397	44.537919
747.600000	6.462486	44.542807
747.700000	6.453424	44.547693
747.800000	6.444212	44.552575
747.900000	6.434856	44.557454
748.000000	6.425358	44.562325
748.100000	6.415723	44.567190
748.200000	6.405955	44.572044
748.300000	6.396058	44.576889
748.400000	6.386035	44.581757
748.500000	6.375890	44.586654
748.600000	6.365627	44.591574
748.700000	6.355251	44.596513
748.800000	6.344764	44.601465
748.900000	6.334171	44.606424
749.000000	6.323476	44.611386
749.100000	6.312683	44.616345
749.200000	6.301795	44.621296
749.300000	6.290816	44.626234
749.400000	6.279751	44.631153
749.500000	6.268602	44.636047
749.600000	6.257374	44.640914
749.700000	6.246072	44.645746
749.800000	6.234698	44.650538
749.900000	6.223256	44.655285
750.000000	6.211751	44.659981
750.100000	6.200186	44.664623
750.200000	6.188565	44.669204
750.300000	6.176893	44.673718
750.400000	6.165172	44.678161
750.500000	6.153407	44.682527
750.600000	6.141602	44.686818
750.700000	6.129760	44.691043
750.800000	6.117886	44.695208
750.900000	6.105983	44.699318
751.000000	6.094055	44.703381
751.100000	6.082106	44.707403
751.200000	6.070140	44.711392
751.300000	6.058161	44.715352
751.400000	6.046172	44.719293
751.500000	6.034179	44.723219
751.600000	6.022183	44.727136
751.700000	6.010190	44.731052
751.800000	5.998204	44.734974
751.900000	5.986333	44.738907
752.000000	5.974621	44.742859
752.100000	5.963047	44.746836
752.200000	5.951591	44.750844
752.300000	5.940233	44.754890
752.400000	5.928953	44.758981
752.500000	5.917731	44.763123
752.600000	5.906546	44.767324
752.700000	5.895379	44.771588
752.800000	5.884208	44.775923
752.900000	5.873015	44.780333
753.000000	5.861778	44.784813
753.100000	5.850477	44.789357
753.200000	5.839093	44.793960
753.300000	5.827605	44.798616
753.400000	5.815993	44.803318
753.500000	5.804237	44.808061
753.600000	5.792316	44.812841
753.700000	5.780211	44.817649
753.800000	5.767901	44.822483
753.900000	5.755365	44.827334
754.000000	5.742584	44.832198
754.100000	5.729538	44.837070
754.200000	5.716207	44.841942
754.300000	5.702569	44.846811
754.400000	5.688605	44.851669
754.500000	5.674295	44.856512
754.600000	5.659619	44.861333
754.700000	5.644556	44.866128
754.800000	5.629087	44.870889
754.900000	5.613190	44.875613
755.000000	5.596846	44.880295
755.100000	5.580034	44.884976
755.200000	5.562736	44.889661
755.300000	5.544929	44.894351
755.400000	5.526594	44.899042
755.500000	5.507711	44.903732
755.600000	5.487977	44.908419
755.700000	5.466287	44.913101
755.800000	5.442676	44.917776
755.900000	5.417309	44.922443
756.000000	5.390351	44.927098
756.100000	5.361969	44.931739
756.200000	5.332326	44.936365
756.300000	5.301588	44.940974
756.400000	5.269921	44.945562
756.500000	5.237490	44.950128
756.600000	5.204460	44.954671
756.700000	5.170996	44.959188
756.800000	5.137264	44.963677
756.900000	5.103429	44.968135
757.000000	5.069657	44.972559
757.100000	5.036111	44.976951
757.200000	5.002959	44.981298
757.300000	4.973424	44.985528
757.400000	4.950673	44.989640
757.500000	4.932771	44.993646
757.600000	4.917749	44.997563
757.700000	4.903637	45.001403
757.800000	4.888469	45.005183
757.900000	4.870274	45.008919
758.000000	4.847083	45.012623
758.100000	4.816929	45.016312
758.200000	4.777843	45.020000
758.300000	4.727855	45.023703
758.400000	4.664997	45.027434
758.500000	4.587300	45.031210
758.600000	4.371585	45.035045
758.700000	0.684429	45.038954
758.800000	3.918969	45.042952
758.900000	2.081031	45.047054
759.000000	2.962792	45.051275
759.100000	2.497073	45.055629
759.200000	2.360623	45.060133
759.300000	2.066948	45.064799
759.400000	1.680616	45.069644
759.500000	1.266197	45.074684
759.600000	0.888259	45.079931
759.700000	0.611372	45.085554
759.800000	0.500104	45.091768
759.900000	0.550740	45.098490
760.000000	0.706376	45.105634
0.000000	0.000000	45.113112
0.000000	0.000000	45.120837
0.000000	0.000000	45.128725
0.000000	0.000000	45.136686
0.000000	0.000000	45.144634
0.000000	0.000000	45.152483
0.000000	0.000000	45.160146
0.000000	0.000000	45.167536
0.000000	0.000000	45.174566
0.000000	0.000000	45.181151
0.000000	0.000000	45.187366
0.000000	0.000000	45.193422
0.000000	0.000000	45.199334
0.000000	0.000000	45.205116
0.000000	0.000000	45.210781
0.000000	0.000000	45.216341
0.000000	0.000000	45.221813
0.000000	0.000000	45.227208
0.000000	0.000000	45.232541
0.000000	0.000000	45.237823
0.000000	0.000000	45.243070
0.000000	0.000000	45.248295
0.000000	0.000000	45.253511
0.000000	0.000000	45.258731
0.000000	0.000000	45.263970
0.000000	0.000000	45.269240
0.000000	0.000000	45.274557
0.000000	0.000000	45.279930
0.000000	0.000000	45.285364
0.000000	0.000000	45.290771
0.000000	0.000000	45.296143
0.000000	0.000000	45.301485
0.000000	0.000000	45.306805
0.000000	0.000000	45.312110
0.000000	0.000000	45.317406
0.000000	0.000000	45.322701
0.000000	0.000000	45.328000
0.000000	0.000000	45.333312
0.000000	0.000000	45.338641
0.000000	0.000000	45.343996
0.000000	0.000000	45.349384
0.000000	0.000000	45.354811
0.000000	0.000000	45.360284
0.000000	0.000000	45.365810
0.000000	0.000000	45.371395
0.000000	0.000000	45.377047
0.000000	0.000000	45.382772
0.000000	0.000000	45.388596
0.000000	0.000000	45.394548
0.000000	0.000000	45.400611
0.000000	0.000000	45.406769
0.000000	0.000000	45.413004
0.000000	0.000000	45.419299
0.000000	0.000000	45.425637
0.000000	0.000000	45.431999
0.000000	0.000000	45.438370
0.000000	0.000000	45.444730
0.000000	0.000000	45.451064
0.000000	0.000000	45.457353
0.000000	0.000000	45.463581
0.000000	0.000000	45.469729
0.000000	0.000000	45.475782
0.000000	0.000000	45.481720
0.000000	0.000000	45.487536
0.000000	0.000000	45.493290
0.000000	0.000000	45.498996
0.000000	0.000000	45.504658
0.000000	0.000000	45.510278
0.000000	0.000000	45.515855
0.000000	0.000000	45.521394
0.000000	0.000000	45.526896
0.000000	0.000000	45.532363
0.000000	0.000000	45.537797
0.000000	0.000000	45.543200
0.000000	0.000000	45.548575
0.000000	0.000000	45.553923
0.000000	0.000000	45.559246
0.000000	0.000000	45.564546
0.000000	0.000000	45.569825
0.000000	0.000000	45.575085
0.000000	0.000000	45.580329
0.000000	0.000000	45.585558
0.000000	0.000000	45.590748
0.000000	0.000000	45.595865
0.000000	0.000000	45.600920
0.000000	0.000000	45.605921
0.000000	0.000000	45.610876
0.000000	0.000000	45.615793
0.000000	0.000000	45.620681
0.000000	0.000000	45.625550
0.000000	0.000000	45.630407
0.000000	0.000000	45.635260
0.000000	0.000000	45.640120
0.000000	0.000000	45.644993
0.000000	0.000000	45.649890
0.000000	0.000000	45.654818
0.000000	0.000000	45.659785
0.000000	0.000000	45.664801
0.000000	0.000000	45.669874
0.000000	0.000000	45.675013
0.000000	0.000000	45.680226
0.000000	0.000000	45.685522
0.000000	0.000000	45.690904
0.000000	0.000000	45.696362
0.000000	0.000000	45.701887
0.000000	0.000000	45.707476
0.000000	0.000000	45.713123
0.000000	0.000000	45.718821
0.000000	0.000000	45.724566
0.000000	0.000000	45.730352
0.000000	0.000000	45.736174
0.000000	0.000000	45.742025
0.000000	0.000000	45.747902
0.000000	0.000000	45.753797
0.000000	0.000000	45.759706
0.000000	0.000000	45.765623
0.000000	0.000000	45.771541
0.000000	0.000000	45.777458
0.000000	0.000000	45.783365
0.000000	0.000000	45.789256
0.000000	0.000000	45.795026
0.000000	0.000000	45.800650
0.000000	0.000000	45.806166
0.000000	0.000000	45.811610
0.000000	0.000000	45.817017
0.000000	0.000000	45.822424
0.000000	0.000000	45.827866
0.000000	0.000000	45.833380
0.000000	0.000000	45.839000
0.000000	0.000000	45.844766
0.000000	0.000000	45.850711
0.000000	0.000000	45.856871
0.000000	0.000000	45.863284
0.000000	0.000000	45.869985
0.000000	0.000000	45.877010
0.000000	0.000000	45.884394
0.000000	0.000000	45.892252
0.000000	0.000000	45.901328
0.000000	0.000000	45.911545
0.000000	0.000000	45.922580
0.000000	0.000000	45.934115
0.000000	0.000000	45.945829
0.000000	0.000000	45.957399
0.000000	0.000000	45.968508
0.000000	0.000000	45.978831
0.000000	0.000000	45.988050
0.000000	0.000000	45.996143
0.000000	0.000000	46.003751
0.000000	0.000000	46.010966
0.000000	0.000000	46.017837
0.000000	0.000000	46.024418
0.000000	0.000000	46.030758
0.000000	0.000000	46.036911
0.000000	0.000000	46.042927
0.000000	0.000000	46.048861
0.000000	0.000000	46.054761
0.000000	0.000000	46.060682
0.000000	0.000000	46.066674
0.000000	0.000000	46.072789
0.000000	0.000000	46.079079
0.000000	0.000000	46.085597
0.000000	0.000000	46.092392
0.000000	0.000000	46.099411
0.000000	0.000000	46.106586
0.000000	0.000000	46.113890
0.000000	0.000000	46.121299
0.000000	0.000000	46.128785
0.000000	0.000000	46.136323
0.000000	0.000000	46.143886
0.000000	0.000000	46.151448
0.000000	0.000000	46.158982
0.000000	0.000000	46.166465
0.000000	0.000000	46.173867
0.000000	0.000000	46.181164
0.000000	0.000000	46.188330
0.000000	0.000000	46.195338
0.000000	0.000000	46.202184
0.000000	0.000000	46.208891
0.000000	0.000000	46.215485
0.000000	0.000000	46.221991
0.000000	0.000000	46.228436
0.000000	0.000000	46.234845
0.000000	0.000000	46.241244
0.000000	0.000000	46.247659
0.000000	0.000000	46.254114
0.000000	0.000000	46.260636
0.000000	0.000000	46.267250
0.000000	0.000000	46.273982
0.000000	0.000000	46.280858
0.000000	0.000000	46.287904
0.000000	0.000000	46.295144
0.000000	0.000000	46.302598
0.000000	0.000000	46.310246
0.000000	0.000000	46.318061
0.000000	0.000000	46.326019
0.000000	0.000000	46.334092
0.000000	0.000000	46.342254
0.000000	0.000000	46.350480
0.000000	0.000000	46.358743
0.000000	0.000000	46.367017
0.000000	0.000000	46.375276
0.000000	0.000000	46.383493
0.000000	0.000000	46.391643
0.000000	0.000000	46.399675
0.000000	0.000000	46.407509
0.000000	0.000000	46.415197
0.000000	0.000000	46.422799
0.000000	0.000000	46.430377
0.000000	0.000000	46.437993
0.000000	0.000000	46.445704
0.000000	0.000000	46.453573
0.000000	0.000000	46.461662
0.000000	0.000000	46.470030
0.000000	0.000000	46.478738
0.000000	0.000000	46.487848
0.000000	0.000000	46.497437
0.000000	0.000000	46.508150
0.000000	0.000000	46.520001
0.000000	0.000000	46.532601
0.000000	0.000000	46.545556
0.000000	0.000000	46.558478
0.000000	0.000000	46.570974
0.000000	0.000000	46.582653
0.000000	0.000000	46.593126
0.000000	0.000000	46.602187
0.000000	0.000000	46.610384
0.000000	0.000000	46.617905
0.000000	0.000000	46.624881
0.000000	0.000000	46.631442
0.000000	0.000000	46.637719
0.000000	0.000000	46.643843
0.000000	0.000000	46.649943
0.000000	0.000000	46.656149
0.000000	0.000000	46.662593
0.000000	0.000000	46.669405
0.000000	0.000000	46.676714
0.000000	0.000000	46.684653
0.000000	0.000000	46.693350
0.000000	0.000000	46.703201
0.000000	0.000000	46.715399
0.000000	0.000000	46.729377
0.000000	0.000000	46.744319
0.000000	0.000000	46.759409
0.000000	0.000000	46.773832
0.000000	0.000000	46.786770
0.000000	0.000000	46.797410
0.000000	0.000000	46.805887
0.000000	0.000000	46.813614
0.000000	0.000000	46.820705
0.000000	0.000000	46.827247
0.000000	0.000000	46.833327
0.000000	0.000000	46.839032
0.000000	0.000000	46.844445
0.000000	0.000000	46.849654
0.000000	0.000000	46.854745
0.000000	0.000000	46.859803
0.000000	0.000000	46.864916
0.000000	0.000000	46.870170
0.000000	0.000000	46.875649
0.000000	0.000000	46.881441
0.000000	0.000000	46.887631
0.000000	0.000000	46.894306
0.000000	0.000000	46.901543
0.000000	0.000000	46.909166
0.000000	0.000000	46.917081
0.000000	0.000000	46.925301
0.000000	0.000000	46.933836
0.000000	0.000000	46.942698
0.000000	0.000000	46.951897
0.000000	0.000000	46.961445
0.000000	0.000000	46.971353
0.000000	0.000000	46.981632
0.000000	0.000000	46.992292
0.000000	0.000000	47.003367
0.000000	0.000000	47.015437
0.000000	0.000000	47.028556
0.000000	0.000000	47.042451
0.000000	0.000000	47.056848
0.000000	0.000000	47.071474
0.000000	0.000000	47.086054
0.000000	0.000000	47.100316
0.000000	0.000000	47.113614
0.000000	0.000000	47.125729
0.000000	0.000000	47.137467
0.000000	0.000000	47.149647
0.000000	0.000000	47.163086
0.000000	0.000000	47.178602
0.000000	0.000000	47.197012
0.000000	0.000000	47.223910
0.000000	0.000000	47.263960
0.000000	0.000000	47.298974
0.000000	0.000000	47.318689
0.000000	0.000000	47.334640
0.000000	0.000000	47.348134
0.000000	0.000000	47.359887
0.000000	0.000000	47.370613
0.000000	0.000000	47.381026
0.000000	0.000000	47.391842
0.000000	0.000000	47.403775
0.000000	0.000000	47.416478
0.000000	0.000000	47.428768
0.000000	0.000000	47.440906
0.000000	0.000000	47.453164
0.000000	0.000000	47.465818
0.000000	0.000000	47.479140
0.000000	0.000000	47.493407
0.000000	0.000000	47.508943
0.000000	0.000000	47.527976
0.000000	0.000000	47.549817
0.000000	0.000000	47.572030
0.000000	0.000000	47.592185
0.000000	0.000000	47.607851
0.000000	0.000000	47.620627
0.000000	0.000000	47.633151
0.000000	0.000000	47.645262
0.000000	0.000000	47.656798
0.000000	0.000000	47.667595
0.000000	0.000000	47.677494
0.000000	0.000000	47.686331
0.000000	0.000000	47.693946
