Dividing Wavelength (nm)	Counts (n)	Blue Motor Position (mm): 0.000000	Red Motor Position (mm): 49.100000	
326.493990	1.001188
326.888308	1.001188
327.282561	1.001188
327.676750	1.000404
328.070874	1.000137
328.464933	1.000491
328.858929	1.000143
329.252859	1.000398
329.646726	0.999982
330.040528	1.001465
330.434265	0.999258
330.827938	1.000722
331.221547	1.000498
331.615091	1.001013
332.008571	1.000085
332.401986	0.999655
332.795338	1.000554
333.188625	0.998157
333.581847	1.000725
333.975006	0.999481
334.368100	0.999698
334.761129	1.000328
335.154095	1.001200
335.546996	0.999212
335.939833	1.000095
336.332606	0.999415
336.725315	1.001064
337.117960	1.001313
337.510540	0.999648
337.903056	1.001031
338.295508	0.998433
338.687896	1.001221
339.080220	1.000019
339.472480	1.000533
339.864676	1.000782
340.256807	1.000798
340.648875	1.000955
341.040879	1.000396
341.432818	0.999876
341.824694	1.000972
342.216506	1.002086
342.608253	0.999566
342.999937	0.999702
343.391557	1.001017
343.783113	0.998966
344.174605	1.000753
344.566033	1.001067
344.957397	0.999559
345.348697	1.000728
345.739934	1.000905
346.131106	0.999345
346.522215	0.999968
346.913260	0.999564
347.304241	0.999944
347.695159	1.000075
348.086012	0.999246
348.476802	1.001030
348.867528	0.999803
349.258191	0.999463
349.648789	1.000648
350.039324	1.000176
350.429796	1.000548
350.820203	1.000739
351.210548	1.000281
351.600828	0.998896
351.991045	0.999918
352.381198	0.998969
352.771288	1.000038
353.161314	0.998829
353.551276	1.000347
353.941175	0.999642
354.331010	1.000528
354.720782	1.000763
355.110490	1.000852
355.500135	1.001440
355.889717	0.999068
356.279235	0.999846
356.668689	1.000473
357.058080	1.000286
357.447408	1.000286
357.836672	1.000916
358.225873	1.001156
358.615010	1.000783
359.004084	1.001312
359.393095	1.000318
359.782043	0.999059
360.170927	1.001011
360.559748	1.000345
360.948505	1.001031
361.337199	1.000427
361.725830	1.000229
362.114398	0.999261
362.502903	1.001223
362.891344	1.001281
363.279722	0.999976
363.668037	1.000993
364.056289	1.001332
364.444478	1.000953
364.832603	1.000582
365.220665	1.000772
365.608665	1.000887
365.996601	1.000064
366.384474	1.000396
366.772284	0.999587
367.160031	0.999762
367.547715	0.998600
367.935336	1.000142
368.322893	1.000397
368.710388	0.999822
369.097820	1.000369
369.485189	1.000458
369.872495	1.000087
370.259738	0.999849
370.646918	1.001042
371.034035	1.000657
371.421090	1.001138
371.808081	0.999550
372.195010	1.000416
372.581875	1.000015
372.968678	0.998835
373.355418	0.999824
373.742096	0.998616
374.128710	1.000692
374.515262	0.999024
374.901751	1.000021
375.288177	0.999543
375.674540	1.000168
376.060841	1.000008
376.447079	0.999661
376.833254	1.000842
377.219367	1.000411
377.605417	1.000632
377.991404	1.000486
378.377329	0.999701
378.763191	1.000248
379.148991	1.000167
379.534727	1.000388
379.920402	1.001509
380.306013	1.000001
380.691563	1.000896
381.077049	1.000036
381.462474	1.000271
381.847835	1.000720
382.233134	0.999038
382.618371	1.000657
383.003545	1.000386
383.388657	0.999846
383.773706	1.001007
384.158693	1.000496
384.543618	0.999817
384.928480	1.000553
385.313280	1.000641
385.698017	1.000118
386.082692	0.999797
386.467305	1.001006
386.851856	1.001105
387.236344	1.000183
387.620770	0.999588
388.005133	1.001268
388.389435	1.000732
388.773674	1.000741
389.157851	1.000872
389.541965	1.000998
389.926018	1.001155
390.310008	1.001046
390.693936	1.000138
391.077802	1.001050
391.461606	1.001020
391.845348	1.000816
392.229027	1.001990
392.612645	0.999943
392.996200	1.001876
393.379694	1.000559
393.763125	1.001994
394.146494	1.001365
394.529801	1.000680
394.913047	1.001338
395.296230	1.000805
395.679351	1.000334
396.062410	1.000293
396.445408	1.001085
396.828343	1.001410
397.211217	1.000939
397.594028	1.001325
397.976778	1.001772
398.359466	1.001435
398.742092	0.999811
399.124656	1.000366
399.507158	1.001087
399.889598	1.001345
400.271977	1.001222
400.654294	1.000910
401.036549	1.001713
401.418742	1.001746
401.800874	1.001223
402.182944	1.000380
402.564952	1.000383
402.946898	1.001322
403.328783	1.000710
403.710606	1.001163
404.092367	1.000973
404.474067	1.000902
404.855705	1.001018
405.237282	1.000756
405.618797	1.001139
406.000250	1.000395
406.381642	1.001714
406.762972	1.000970
407.144240	1.001599
407.525447	1.000193
407.906593	1.000674
408.287677	1.000924
408.668700	1.001296
409.049661	1.000813
409.430560	1.001421
409.811399	1.001357
410.192176	1.001426
410.572891	1.000515
410.953545	1.000866
411.334138	0.999626
411.714669	1.001489
412.095139	1.000809
412.475547	1.001040
412.855894	1.001161
413.236180	1.000867
413.616405	1.001145
413.996568	1.001952
414.376670	1.000952
414.756711	1.001006
415.136691	1.000101
415.516609	1.001085
415.896466	1.000499
416.276262	1.000298
416.655997	1.001273
417.035670	1.000513
417.415283	1.001402
417.794834	1.001114
418.174324	1.000934
418.553753	1.002002
418.933121	1.000264
419.312428	1.000387
419.691674	1.001388
420.070859	1.001146
420.449983	1.001386
420.829045	1.001370
421.208047	1.001345
421.586988	1.002135
421.965867	1.000645
422.344686	1.001906
422.723444	1.000989
423.102141	1.000748
423.480777	1.001579
423.859352	1.001196
424.237866	1.000743
424.616319	1.001086
424.994712	1.001773
425.373044	1.001382
425.751314	1.001867
426.129524	1.001197
426.507673	1.001564
426.885762	1.001531
427.263789	1.001283
427.641756	1.001915
428.019662	1.001486
428.397508	1.001076
428.775292	1.000078
429.153016	1.001305
429.530679	1.001786
429.908282	1.001725
430.285824	1.000904
430.663305	1.000746
431.040726	1.000819
431.418086	1.001975
431.795385	1.002419
432.172624	1.001063
432.549802	1.001477
432.926920	1.001673
433.303977	1.000759
433.680974	1.002014
434.057910	1.001754
434.434786	1.002125
434.811601	1.000386
435.188355	1.000881
435.565050	1.000565
435.941683	1.001384
436.318257	1.002088
436.694770	1.000530
437.071222	1.001036
437.447614	1.002180
437.823946	1.001260
438.200218	1.001213
438.576429	1.001847
438.952580	1.001903
439.328670	1.000894
439.704700	1.001291
440.080670	1.001050
440.456580	1.000355
440.832429	0.999775
441.208218	1.002368
441.583947	1.001338
441.959616	1.001525
442.335224	1.000986
442.710773	1.002090
443.086261	1.000851
443.461689	1.000619
443.837057	1.001239
444.212365	1.001418
444.587612	1.001598
444.962800	1.000897
445.337927	1.001114
445.712995	1.001779
446.088002	1.002423
446.462949	1.001326
446.837837	1.001867
447.212664	1.001716
447.587431	1.001412
447.962139	1.001111
448.336786	1.001746
448.711374	1.001453
449.085901	1.000471
449.460369	1.001319
449.834776	1.001000
450.209124	1.001564
450.583412	1.001795
450.957640	1.000823
451.331808	1.000716
451.705917	1.001564
452.079965	1.001056
452.453954	1.001168
452.827883	1.001269
453.201752	1.001879
453.575562	1.001473
453.949311	1.001545
454.323001	1.001269
454.696632	1.000254
455.070202	1.000961
455.443713	1.000330
455.817164	1.001676
456.190556	1.001587
456.563888	1.001500
456.937160	1.001441
457.310373	1.000566
457.683526	1.001445
458.056619	1.000922
458.429653	1.001708
458.802628	1.000605
459.175542	1.001116
459.548398	1.000762
459.921194	1.000501
460.293930	1.001050
460.666607	0.999885
461.039224	1.000167
461.411782	1.001096
461.784280	1.000970
462.156719	1.002037
462.529099	1.001999
462.901419	1.001058
463.273680	1.001419
463.645882	1.001112
464.018024	1.001001
464.390106	1.001532
464.762130	1.001636
465.134094	1.001261
465.505999	1.001369
465.877845	1.000560
466.249631	1.001226
466.621358	1.001715
466.993026	1.001819
467.364634	1.001531
467.736184	1.001532
468.107674	1.001534
468.479105	1.001709
468.850477	1.002287
469.221790	1.001831
469.593043	1.001716
469.964238	1.002458
470.335373	1.001199
470.706449	1.001519
471.077467	1.002035
471.448425	1.001292
471.819324	1.002443
472.190164	1.000787
472.560945	1.001396
472.931667	1.001623
473.302330	1.000936
473.672934	1.002387
474.043479	1.001923
474.413965	1.001353
474.784393	1.001927
475.154761	1.001753
475.525070	1.000635
475.895321	1.001570
476.265513	1.000997
476.635645	1.001779
477.005719	1.001022
477.375734	1.001061
477.745691	1.001091
478.115588	1.001639
478.485427	1.001996
478.855207	1.000932
479.224928	1.002296
479.594591	1.001719
479.964194	1.001623
480.333739	1.001412
480.703226	1.001500
481.072653	1.002280
481.442022	1.001874
481.811333	1.000992
482.180584	1.001889
482.549777	1.001590
482.918912	1.001447
483.287988	1.001570
483.657005	1.001280
484.025964	1.001796
484.394864	1.002251
484.763706	1.001421
485.132489	1.002148
485.501213	1.001175
485.869879	1.001170
486.238487	1.001718
486.607036	1.001846
486.975527	1.000839
487.343959	1.001412
487.712333	1.001761
488.080648	1.001480
488.448905	1.001403
488.817104	1.001951
489.185244	1.001325
489.553326	1.002164
489.921350	1.001340
490.289315	1.001697
490.657222	1.001688
491.025070	1.001461
491.392861	1.002011
491.760593	1.002013
492.128267	1.001801
492.495883	1.001352
492.863440	1.001676
493.230939	1.002002
493.598380	1.001747
493.965763	1.001670
494.333088	1.002330
494.700354	1.001247
495.067563	1.001434
495.434713	1.001447
495.801805	1.002073
496.168839	1.001416
496.535815	1.001396
496.902733	1.001624
497.269593	1.001170
497.636395	1.001702
498.003139	1.001597
498.369825	1.002334
498.736453	1.001346
499.103023	1.001910
499.469535	1.000972
499.835989	1.001709
500.202385	1.001859
500.568723	1.001164
500.935003	1.001812
501.301226	1.002123
501.667390	1.001587
502.033497	1.001624
502.399546	1.001950
502.765537	1.001447
503.131470	1.001387
503.497345	1.001608
503.863163	1.002459
504.228923	1.001827
504.594625	1.001957
504.960269	1.002241
505.325856	1.002149
505.691385	1.001464
506.056856	1.001418
506.422270	1.001421
506.787625	1.001723
507.152924	1.001752
507.518164	1.000503
507.883347	1.000665
508.248472	1.000840
508.613540	1.001690
508.978550	1.001659
509.343503	1.001615
509.708398	1.001481
510.073236	1.002038
510.438016	1.002228
510.802738	1.001892
511.167403	1.001826
511.532010	1.002110
511.896561	1.001282
512.261053	1.002433
512.625488	1.001688
512.989866	1.001784
513.354186	1.001457
513.718449	1.001907
514.082655	1.001615
514.446803	1.001620
514.810894	1.002087
515.174927	1.001649
515.538904	1.001509
515.902822	1.001490
516.266684	1.002078
516.630488	1.002390
516.994235	1.001022
517.357925	1.001858
517.721558	1.001910
518.085133	1.001091
518.448651	1.002608
518.812112	1.001975
519.175516	1.001338
519.538863	1.002347
519.902152	1.001635
520.265385	1.001312
520.628560	1.001833
520.991678	1.001987
521.354739	1.002230
521.717743	1.001936
522.080690	1.001795
522.443580	1.001601
522.806413	1.001585
523.169189	1.001011
523.531908	1.001346
523.894569	1.001451
524.257174	1.001740
524.619722	1.001680
524.982213	1.001480
525.344647	1.002227
525.707025	1.001671
526.069345	1.001129
526.431608	1.001568
526.793815	1.002402
527.155964	1.001700
527.518057	1.002215
527.880093	1.001819
528.242072	1.001291
528.603995	1.002173
528.965860	1.002447
529.327669	1.001614
529.689421	1.001550
530.051117	1.002208
530.412755	1.002015
530.774337	1.002229
531.135862	1.001701
531.497331	1.001940
531.858743	1.001899
532.220098	1.002294
532.581396	1.001712
532.942638	1.002568
533.303824	1.001458
533.664953	1.001885
534.026025	1.001498
534.387040	1.001672
534.747999	1.001824
535.108902	1.001851
535.469748	1.001487
535.830537	1.001472
536.191270	1.001626
536.551947	1.002219
536.912567	1.002769
537.273131	1.002227
537.633638	1.001685
537.994089	1.001792
538.354483	1.002302
538.714821	1.002524
539.075103	1.001331
539.435328	1.001667
539.795497	1.001789
540.155609	1.002064
540.515665	1.001609
540.875665	1.002337
541.235609	1.002404
541.595496	1.001147
541.955328	1.001521
542.315102	1.001845
542.674821	1.001480
543.034483	1.001416
543.394090	1.001275
543.753640	1.001978
544.113134	1.001125
544.472571	1.002302
544.831953	1.002020
545.191278	1.001887
545.550548	1.001980
545.909761	1.001258
546.268918	1.001813
546.628019	1.001681
546.987064	1.001531
547.346053	1.001770
547.704986	1.002668
548.063863	1.001776
548.422684	1.002273
548.781449	1.002753
549.140158	1.001795
549.498811	1.001721
549.857408	1.002015
550.215949	1.002464
550.574434	1.001457
550.932864	1.001803
551.291237	1.001862
551.649555	1.001688
552.007817	1.001662
552.366022	1.001625
552.724173	1.001879
553.082267	1.002283
553.440305	1.001730
553.798288	1.001899
554.156215	1.001556
554.514086	1.001755
554.871902	1.001717
555.229661	1.001615
555.587365	1.001837
555.945014	1.002540
556.302606	1.001596
556.660143	1.001499
557.017625	1.001791
557.375050	1.001369
557.732421	1.001826
558.089735	1.002297
558.446994	1.002203
558.804197	1.001747
559.161345	1.002255
559.518437	1.002536
559.875474	1.001670
560.232455	1.001872
560.589381	1.002624
560.946251	1.000840
561.303065	1.001623
561.659825	1.002375
562.016528	1.001805
562.373177	1.002239
562.729770	1.001346
563.086307	1.001975
563.442789	1.001932
563.799216	1.002126
564.155587	1.000986
564.511904	1.001758
564.868164	1.001546
565.224370	1.001917
565.580520	1.002076
565.936615	1.001158
566.292654	1.001673
566.648638	1.001311
567.004567	1.001114
567.360441	1.002376
567.716260	1.002174
568.072023	1.001320
568.427732	1.001301
568.783385	1.001955
569.138982	1.001853
569.494525	1.001527
569.850013	1.001580
570.205445	1.001627
570.560823	1.001899
570.916145	1.001164
571.271412	1.001791
571.626625	1.001362
571.981782	1.001753
572.336884	1.001892
572.691931	1.001260
573.046923	1.001685
573.401860	1.002298
573.756743	1.001512
574.111570	1.002183
574.466342	1.002146
574.821059	1.002321
575.175722	1.001633
575.530330	1.001771
575.884882	1.001569
576.239380	1.002576
576.593823	1.001527
576.948211	1.001347
577.302544	1.000835
577.656823	1.001920
578.011047	1.002427
578.365216	1.001090
578.719330	1.001120
579.073389	1.001788
579.427394	1.001171
579.781344	1.001557
580.135239	1.001483
580.489080	1.001039
580.842866	1.001751
581.196597	1.001401
581.550273	1.001275
581.903895	1.001654
582.257463	1.001845
582.610975	1.001287
582.964434	1.001262
583.317837	1.002475
583.671186	1.001186
584.024481	1.001342
584.377721	1.001350
584.730906	1.001114
585.084037	1.001304
585.437113	1.001645
585.790135	1.001881
586.143103	1.001066
586.496016	1.002619
586.848874	1.001744
587.201679	1.001892
587.554428	1.001427
587.907124	1.001483
588.259765	1.001512
588.612352	1.001649
588.964884	1.001646
589.317362	1.001639
589.669786	1.001357
590.022155	1.001728
590.374470	1.001160
590.726731	1.001352
591.078937	1.000343
591.431090	1.001168
591.783188	1.001231
592.135232	1.001332
592.487222	1.001953
592.839157	1.001503
593.191038	1.001656
593.542866	1.001456
593.894639	1.002088
594.246358	1.001444
594.598022	1.000542
594.949633	1.001651
595.301190	1.001456
595.652692	1.001648
596.004141	1.002048
596.355535	1.002375
596.706876	1.001346
597.058162	1.001523
597.409395	1.001450
597.760573	1.001331
598.111698	1.001368
598.462768	1.001009
598.813785	1.001111
599.164748	1.001953
599.515657	1.000991
599.866511	1.001445
600.217312	1.001064
600.568060	1.001519
600.918753	1.001931
601.269392	1.001725
601.619978	1.001343
601.970510	1.001130
602.320988	1.001138
602.671412	1.001487
603.021783	1.001275
603.372100	1.001938
603.722363	1.001606
604.072572	1.000893
604.422728	1.001822
604.772830	1.000797
605.122878	1.000996
605.472872	1.001384
605.822813	1.001065
606.172701	1.001529
606.522534	1.001794
606.872314	1.000815
607.222041	1.001267
607.571714	1.002044
607.921333	1.001052
608.270899	1.000780
608.620411	1.001459
608.969870	1.001762
609.319276	1.001020
609.668627	1.001722
610.017926	1.000398
610.367171	1.001282
610.716362	1.000247
611.065500	1.000850
611.414585	1.001041
611.763616	1.002155
612.112594	1.000452
612.461518	1.000905
612.810389	1.001477
613.159207	1.001763
613.507971	1.001515
613.856682	1.001326
614.205340	1.001675
614.553945	1.000671
614.902496	1.002099
615.250994	1.002307
615.599439	1.002005
615.947830	1.001091
616.296169	1.001384
616.644454	1.000803
616.992686	1.001314
617.340864	1.001355
617.688990	1.001513
618.037063	1.000769
618.385082	1.001506
618.733048	1.000706
619.080961	1.000934
619.428821	1.001706
619.776628	1.001501
620.124382	1.000611
620.472083	1.000350
620.819731	1.001611
621.167326	1.001289
621.514868	1.001466
621.862357	1.001636
622.209793	1.001789
622.557176	0.999858
622.904506	1.001760
623.251783	1.000999
623.599007	1.001369
623.946179	1.001440
624.293297	1.000924
624.640363	1.001260
624.987376	1.000967
625.334336	1.001086
625.681243	1.001377
626.028097	1.002151
626.374899	1.001938
626.721647	1.001697
627.068343	1.002185
627.414987	1.001499
627.761577	1.001570
628.108115	1.001003
628.454600	1.000831
628.801032	1.001266
629.147412	1.001353
629.493739	1.000458
629.840014	1.001397
630.186236	1.001277
630.532405	1.000751
630.878521	1.001053
631.224585	1.000644
631.570597	1.000917
631.916556	1.001637
632.262462	1.001400
632.608316	1.001137
632.954117	1.001181
633.299866	1.001062
633.645562	1.000999
633.991206	1.001434
634.336797	1.001550
634.682336	1.001104
635.027823	1.001592
635.373257	1.001618
635.718639	1.001502
636.063968	1.000914
636.409245	1.000996
636.754470	1.001912
637.099642	1.001258
637.444762	1.001520
637.789829	1.000964
638.134845	1.000197
638.479808	1.001466
638.824719	1.000383
639.169577	1.000709
639.514383	1.000681
639.859137	1.002115
640.203839	1.001326
640.548489	1.000982
640.893086	1.000887
641.237632	1.001570
641.582125	1.000567
641.926566	1.000230
642.270955	1.001225
642.615292	1.001022
642.959576	1.001502
643.303809	1.001592
643.647990	0.999787
643.992118	1.001019
644.336195	1.001768
644.680219	1.001684
645.024192	1.001626
645.368112	1.000946
645.711981	1.001087
646.055797	1.001644
646.399562	1.000290
646.743274	0.999857
647.086935	1.000808
647.430544	1.000095
647.774101	1.001286
648.117606	1.000678
648.461059	1.000422
648.804460	1.000473
649.147810	1.001394
649.491108	1.000839
649.834354	1.000700
650.177548	1.000955
650.520690	1.001564
650.863781	1.000603
651.206820	1.001310
651.549807	1.001235
651.892742	1.001541
652.235626	1.001243
652.578458	1.001106
652.921238	1.000782
653.263967	1.001463
653.606644	1.001022
653.949269	1.001342
654.291843	1.001004
654.634365	1.000951
654.976836	1.001343
655.319255	1.000923
655.661622	1.001202
656.003938	1.000666
656.346203	1.000427
656.688416	1.001167
657.030577	1.001803
657.372687	1.000721
657.714746	1.000766
658.056753	1.000506
658.398708	1.000916
658.740612	1.000860
659.082465	1.000496
659.424266	1.001341
659.766016	0.999927
660.107715	1.000496
660.449362	1.001280
660.790958	1.000813
661.132503	0.999807
661.473996	1.000803
661.815438	1.000199
662.156829	1.000251
662.498168	1.001114
662.839456	1.000381
663.180693	1.001781
663.521879	1.000909
663.863013	1.001183
664.204097	1.001488
664.545129	1.001135
664.886110	0.999986
665.227040	1.000623
665.567918	1.000872
665.908746	1.001719
666.249522	0.999626
666.590248	1.000512
666.930922	1.001314
667.271545	1.000500
667.612118	1.000909
667.952639	1.000327
668.293109	1.000690
668.633528	1.001156
668.973896	1.000707
669.314213	1.000130
669.654480	1.000910
669.994695	1.000369
670.334859	1.000391
670.674973	0.999685
671.015035	1.001040
671.355047	1.000498
671.695008	1.001334
672.034918	1.000387
672.374777	1.000734
672.714585	1.000227
673.054342	1.000931
673.394049	1.000117
673.733705	1.000016
674.073310	1.000709
674.412864	0.999913
674.752368	1.000110
675.091820	1.001200
675.431223	1.000567
675.770574	1.000702
676.109875	1.000263
676.449125	1.000093
676.788324	1.000794
677.127473	1.001490
677.466571	0.999522
677.805619	0.999762
678.144616	1.000172
678.483562	1.000189
678.822458	1.000441
679.161303	1.001943
679.500098	1.000269
679.838842	1.001063
680.177535	1.001165
680.516179	1.000701
680.854771	1.001289
681.193314	1.000590
681.531805	1.000280
681.870247	0.999671
682.208638	1.000019
682.546978	0.999779
682.885268	1.000591
683.223508	1.000445
683.561697	0.999852
683.899836	1.001114
684.237925	1.000248
684.575963	1.000741
684.913951	0.999978
685.251889	1.000666
685.589776	1.000452
685.927614	1.001066
686.265401	1.000441
686.603137	1.000806
686.940824	1.000037
687.278460	1.000929
687.616046	1.000460
687.953582	0.999666
688.291068	1.000215
688.628504	1.001856
688.965889	1.000112
689.303224	0.999190
689.640510	1.001043
689.977745	1.000925
690.314930	1.001556
690.652065	1.000787
690.989150	1.000396
691.326185	1.000378
691.663170	1.001071
692.000105	1.000249
692.336990	1.000681
692.673825	1.000654
693.010610	1.000981
693.347345	0.999004
693.684030	1.000870
694.020665	1.001333
694.357251	1.000645
694.693786	1.001342
695.030272	1.001758
695.366707	0.999777
695.703093	1.000519
696.039429	1.000592
696.375716	0.999784
696.711952	1.000500
697.048139	1.000809
697.384276	1.000360
697.720363	0.999970
698.056400	1.000565
698.392388	0.999554
698.728326	1.001419
699.064214	1.002153
699.400053	1.002111
699.735842	1.000724
700.071581	1.001040
700.407270	0.999945
700.742910	1.000385
701.078501	1.001504
701.414042	1.001390
701.749533	0.999970
702.084974	1.000258
702.420366	0.999757
702.755709	1.000402
703.091002	1.000052
703.426246	1.001275
703.761440	1.000778
704.096584	1.000802
704.431679	1.000033
704.766725	1.000227
705.101721	1.000986
705.436668	0.999905
705.771565	1.000725
706.106413	1.000620
706.441212	1.000056
706.775961	0.998853
707.110661	0.999858
707.445311	1.000306
707.779913	1.001001
708.114465	1.000055
708.448967	1.000087
708.783421	0.999793
709.117825	0.999820
709.452180	1.000757
709.786485	0.999721
710.120742	1.000530
710.454949	1.000916
710.789107	1.000820
711.123216	0.999662
711.457275	1.001003
711.791286	0.999526
712.125247	1.001091
712.459159	0.999672
712.793023	1.000954
713.126837	1.000196
713.460602	0.999808
713.794318	1.000856
714.127985	1.000579
714.461602	1.001311
714.795171	1.000070
715.128691	1.000037
715.462162	1.001399
715.795584	1.000103
716.128957	1.001450
716.462281	1.000820
716.795556	1.000062
717.128782	0.999941
717.461960	1.000502
717.795088	1.000069
718.128167	1.000877
718.461198	1.001102
718.794180	1.000889
719.127113	0.999842
719.459997	1.000336
719.792833	1.001136
720.125619	0.999770
720.458357	1.000615
720.791046	1.001195
721.123686	1.000702
721.456278	0.999818
721.788821	1.000196
722.121315	1.000483
722.453761	1.000852
722.786158	1.000432
723.118506	1.000538
723.450805	1.001055
723.783056	1.000026
724.115259	0.999570
724.447412	1.000744
724.779518	1.000457
725.111574	1.000465
725.443582	1.000425
725.775542	1.000753
726.107453	1.000944
726.439315	1.000999
726.771129	1.000301
727.102895	1.000670
727.434612	0.999964
727.766281	1.000622
728.097901	0.999917
728.429473	1.001150
728.760996	0.999753
729.092471	0.999225
729.423897	1.000404
729.755276	1.000016
730.086606	1.000141
730.417887	1.000546
730.749120	1.000400
731.080305	0.999959
731.411442	0.999733
731.742530	1.001030
732.073570	1.000036
732.404562	1.000350
732.735506	1.000122
733.066401	1.000460
733.397249	1.000512
733.728048	1.001019
734.058798	1.000807
734.389501	0.999763
734.720156	1.000024
735.050762	1.000684
735.381320	1.000846
735.711831	1.001442
736.042293	1.001164
736.372707	1.001071
736.703073	1.000269
737.033391	1.001433
737.363661	1.000891
737.693883	1.000745
738.024056	1.000351
738.354182	1.000582
738.684260	0.999908
739.014290	1.000051
739.344272	1.000238
739.674207	1.000316
740.004093	1.000740
740.333931	1.000536
740.663722	0.999824
740.993464	1.000883
741.323159	0.999745
741.652806	1.001022
741.982405	1.001350
742.311956	0.999686
742.641460	1.000514
742.970915	1.000384
743.300323	1.000615
743.629683	1.001860
743.958996	1.001178
744.288260	1.000076
744.617477	1.000522
744.946647	1.000624
745.275768	1.000316
745.604842	1.000351
745.933869	1.000321
746.262847	1.000377
746.591778	0.999580
746.920662	1.001443
747.249498	1.000610
747.578286	0.999774
747.907027	1.000224
748.235720	1.000470
748.564365	0.999954
748.892963	1.000208
749.221514	0.999134
749.550017	1.000796
749.878473	0.999894
750.206881	0.999939
750.535242	1.001607
750.863555	1.001171
751.191821	1.001131
751.520039	0.999877
751.848210	1.000684
752.176334	0.999588
752.504411	1.000765
752.832440	1.000389
753.160421	1.000951
753.488356	1.001400
753.816243	1.000567
754.144082	1.000502
754.471875	1.000687
754.799620	1.000309
755.127318	1.000025
755.454969	1.000512
755.782572	1.000076
756.110129	1.001120
756.437638	1.000879
756.765100	1.000496
757.092515	0.999755
757.419882	1.001721
757.747203	1.000223
758.074477	0.999292
758.401703	1.000278
758.728882	1.000392
759.056014	0.999785
759.383099	1.000054
759.710138	1.000918
760.037129	1.000562
760.364073	1.000557
760.690970	1.000412
761.017820	1.001475
761.344623	1.001342
761.671379	1.001404
761.998088	1.000117
762.324751	1.001598
762.651366	1.001248
762.977935	1.000593
763.304456	1.001091
763.630931	1.000942
763.957359	1.000027
764.283740	1.001344
764.610074	1.000328
764.936362	1.001278
765.262602	1.000325
765.588796	1.001127
765.914943	1.001810
766.241044	1.001619
766.567097	1.002061
766.893104	1.000907
767.219064	1.000083
767.544978	1.001613
767.870845	1.001593
768.196665	1.000462
768.522438	0.999877
768.848165	1.001300
769.173846	1.001753
769.499479	1.001636
769.825066	1.000482
770.150607	1.000729
770.476101	1.000698
770.801548	1.000471
771.126949	1.000409
771.452303	0.999076
771.777611	1.000618
772.102872	1.001091
772.428087	0.999719
772.753256	1.000802
773.078378	1.000683
773.403453	1.000749
773.728482	1.001487
774.053465	1.000606
774.378401	1.001175
774.703291	1.000597
775.028135	1.000518
775.352932	1.001511
775.677683	0.999354
776.002388	0.999301
776.327046	0.999326
776.651658	0.999820
776.976224	0.999750
777.300743	1.000357
777.625216	1.000132
777.949643	1.000003
778.274024	1.000739
778.598359	1.000058
778.922647	1.001152
779.246889	1.000702
779.571086	1.001738
779.895236	1.001085
780.219339	1.000220
780.543397	1.000857
780.867409	1.001338
781.191374	1.000229
781.515294	1.000667
781.839167	0.999756
782.162995	1.000854
782.486776	0.999822
782.810511	1.000970
783.134201	1.000907
783.457844	0.999965
783.781441	1.000847
784.104993	1.000856
784.428498	1.000911
784.751958	1.000024
785.075372	1.001389
785.398739	0.999691
785.722061	1.000246
786.045337	1.001307
786.368568	0.999459
786.691752	1.000907
787.014891	1.000659
787.337983	0.999894
787.661030	1.000145
787.984031	1.000370
788.306987	0.999931
788.629897	1.000956
788.952760	1.001049
789.275579	1.001096
789.598351	1.000542
789.921078	1.000758
790.243759	1.000831
790.566395	1.000587
790.888984	1.000740
791.211529	1.001366
791.534027	1.000026
791.856480	1.000186
792.178888	1.000320
792.501249	1.000345
792.823566	1.000634
793.145836	1.000456
793.468062	1.000402
793.790241	1.000640
794.112375	1.000046
794.434464	0.999218
794.756507	1.000327
795.078505	1.000470
795.400457	1.000387
795.722364	1.001180
796.044226	1.000705
796.366042	0.999788
796.687812	1.000657
797.009538	1.001119
797.331218	1.000487
797.652852	1.001244
797.974442	1.000505
798.295986	0.999524
798.617484	1.000617
798.938938	1.001514
799.260346	1.000714
799.581709	1.000802
799.903026	1.000802
800.224299	1.000630
800.545526	1.000518
800.866708	1.000439
801.187845	1.000784
801.508936	1.002127
801.829983	1.001092
802.150984	0.999559
802.471940	1.001347
802.792851	0.999547
803.113717	0.999640
803.434538	1.001245
803.755314	0.999899
804.076045	1.000113
804.396731	1.000612
804.717372	1.000802
805.037967	1.000114
805.358518	0.999357
805.679024	1.000810
805.999485	0.999864
806.319901	1.001870
806.640272	1.000320
806.960598	0.999963
807.280879	1.000177
807.601115	1.001396
807.921306	1.000579
808.241453	0.999450
808.561554	1.000139
808.881611	1.000402
809.201623	0.999675
809.521590	1.000090
809.841513	1.000495
810.161390	1.000175
810.481223	1.000030
810.801011	1.001242
811.120755	1.001341
811.440453	1.000973
811.760107	0.998908
812.079716	1.000438
812.399281	1.000892
812.718801	1.000467
813.038276	0.999998
813.357707	1.000623
813.677093	1.000022
813.996434	1.002363
814.315731	1.001865
814.634983	1.000643
814.954191	0.999435
815.273354	1.000985
815.592473	0.999318
815.911547	1.000708
816.230577	1.001087
816.549562	1.000667
816.868502	1.001556
817.187399	1.000829
817.506250	1.000873
817.825058	1.001123
818.143821	1.000353
818.462539	0.999837
818.781213	1.000938
819.099843	0.998974
819.418429	1.000641
819.736970	1.000649
820.055466	1.000012
820.373919	1.000439
820.692327	1.000023
821.010691	0.999907
821.329011	1.000730
821.647286	0.999980
821.965517	1.000734
822.283704	1.000634
822.601847	1.001864
822.919945	1.001598
823.237999	1.002316
823.556010	1.001570
823.873976	1.002117
824.191897	1.002101
824.509775	1.000555
824.827609	1.001215
825.145398	1.000943
825.463144	1.002115
825.780845	1.001521
826.098502	1.001784
826.416116	1.001473
826.733685	1.001253
827.051210	1.001050
827.368692	1.000868
827.686129	1.001103
828.003522	1.000413
828.320872	0.999388
828.638177	1.001698
828.955439	1.000796
829.272656	1.001666
829.589830	1.001296
829.906960	1.000612
830.224046	1.000415
830.541088	1.000876
830.858086	0.999794
831.175041	1.001237
831.491952	1.000938
831.808819	1.000216
832.125642	1.000758
832.442421	1.000023
832.759157	1.001459
833.075849	1.000158
833.392497	1.000610
833.709101	1.000241
834.025662	1.001025
834.342179	1.000622
834.658653	1.001533
834.975083	1.000272
835.291469	1.000561
835.607811	1.000144
835.924110	0.998663
836.240366	1.000993
836.556578	1.001735
836.872746	1.001229
837.188871	1.000246
837.504952	0.999870
837.820990	1.000340
838.136984	0.999901
838.452935	0.999830
838.768842	1.000772
839.084706	1.000956
839.400526	0.999976
839.716303	1.000111
840.032037	1.000413
840.347727	1.000981
840.663373	1.001324
840.978977	1.001167
841.294537	1.000203
841.610054	1.000942
841.925527	0.999843
842.240957	1.000342
842.556344	0.999921
842.871687	1.001133
843.186987	1.001757
843.502244	1.000339
843.817458	0.999255
844.132629	0.999553
844.447756	1.000693
844.762840	1.000056
845.077881	1.000125
845.392879	1.000314
845.707833	1.000641
846.022745	1.000950
846.337613	1.001107
846.652438	1.001374
846.967221	0.999660
847.281960	0.999076
847.596656	1.000993
847.911309	0.999362
848.225919	1.000746
848.540485	0.999562
848.855009	1.000107
849.169490	0.998931
849.483928	1.000100
849.798323	1.000886
850.112675	1.000120
850.426984	1.000177
850.741251	1.000793
851.055474	1.002002
851.369654	0.999927
851.683792	1.000757
851.997887	0.999845
852.311938	1.001228
852.625947	1.001931
852.939914	1.000610
853.253837	1.001162
853.567718	1.001065
853.881555	1.000962
854.195350	1.000232
854.509103	1.001030
854.822812	1.000551
855.136479	1.000320
855.450103	0.999913
855.763685	0.999301
856.077224	0.999591
856.390720	0.999154
856.704173	1.000973
857.017584	0.999806
857.330953	0.999672
857.644278	1.001682
857.957561	1.000681
858.270802	0.999708
858.584000	0.999808
858.897155	1.000183
859.210268	1.001116
859.523339	0.999647
859.836367	1.000178
860.149352	1.000657
860.462295	0.999478
860.775195	0.999860
861.088054	1.000242
861.400869	0.998929
861.713642	0.999373
862.026373	0.999196
862.339062	0.999931
862.651708	0.999240
862.964312	0.999725
863.276873	1.001559
863.589392	1.000708
863.901869	1.000915
864.214303	1.001421
864.526696	1.000831
864.839045	1.001207
865.151353	1.000555
865.463619	1.000743
865.775842	1.001133
866.088023	1.000360
866.400162	1.000428
866.712258	1.000333
867.024313	1.000444
867.336325	0.999331
867.648296	1.000183
867.960224	1.001904
868.272110	1.000570
868.583954	0.999965
868.895755	1.000764
869.207515	0.999994
869.519233	0.999382
869.830909	1.000785
870.142542	1.001141
870.454134	1.000506
870.765684	1.001434
871.077191	0.999686
871.388657	1.002522
871.700081	1.000035
872.011463	1.000522
872.322803	1.001182
872.634101	0.999392
872.945357	1.000591
873.256571	1.000982
873.567744	1.000496
873.878874	0.999570
874.189963	0.998887
874.501010	1.000336
874.812015	1.001368
875.122979	1.001358
875.433900	1.001345
875.744780	1.000298
876.055618	0.999552
876.366415	1.000679
876.677169	0.999664
876.987882	1.000878
877.298554	1.000008
877.609183	0.999890
877.919771	1.001081
878.230317	0.999498
878.540822	1.000164
878.851285	0.999649
879.161707	0.999886
879.472087	1.001777
879.782425	0.999985
880.092722	1.001353
880.402977	0.999569
880.713191	1.000651
881.023363	1.000986
881.333494	1.000241
881.643583	1.001070
881.953631	1.001358
882.263637	1.001475
882.573602	1.000597
882.883526	1.001442
883.193408	1.000996
883.503248	1.001484
883.813048	1.000426
884.122806	1.000436
884.432522	0.999589
884.742197	1.002122
885.051831	1.000277
885.361424	0.999892
885.670975	1.000508
885.980485	1.001063
886.289954	1.000297
886.599382	1.002038
886.908768	1.000996
887.218113	1.001622
887.527417	0.999453
887.836680	1.001148
888.145901	1.000865
888.455082	1.000474
888.764221	1.001991
889.073319	0.999645
889.382376	1.000312
889.691392	1.000634
890.000366	1.000384
890.309300	1.001243
890.618193	1.000104
890.927044	1.000030
891.235855	0.999223
891.544625	0.998965
891.853353	1.000514
892.162041	1.000332
892.470687	1.001222
892.779293	1.000780
893.087858	1.000192
893.396381	1.000975
893.704864	1.001019
894.013306	1.000433
894.321707	1.000066
894.630068	1.000578
894.938387	1.001422
895.246665	1.000633
895.554903	1.000572
895.863100	1.001128
896.171256	1.001215
896.479371	1.000763
896.787446	0.999777
897.095480	1.000437
897.403473	1.001071
897.711425	1.000385
898.019336	1.001132
898.327207	0.999485
898.635038	1.001635
898.942827	1.000133
899.250576	0.999698
899.558284	0.999239
899.865952	0.999823
900.173579	1.000131
900.481165	0.999798
900.788711	1.001790
901.096216	1.000520
901.403681	1.000111
901.711105	1.002542
902.018489	0.999965
902.325832	0.999953
902.633135	0.999758
902.940397	1.000176
903.247619	1.001884
903.554800	0.999329
903.861941	1.000346
904.169041	1.001198
904.476101	1.000404
904.783121	1.000484
905.090100	1.001416
905.397039	1.001391
905.703938	1.000862
906.010796	1.000080
906.317614	1.000924
906.624391	1.000474
906.931129	0.999908
907.237826	1.000058
907.544483	1.001370
907.851099	0.999130
908.157675	0.999750
908.464211	1.000963
908.770707	1.001567
909.077163	1.000733
909.383578	1.000548
909.689954	0.999618
909.996289	0.999112
910.302584	1.000179
910.608839	1.001395
910.915054	0.999767
911.221229	1.000855
911.527363	1.000692
911.833458	0.999631
912.139513	1.000752
912.445527	0.999551
912.751502	1.000173
913.057436	1.001144
913.363331	0.999726
913.669186	1.000209
913.975000	1.000386
914.280775	1.000721
914.586510	1.000055
914.892205	0.999458
915.197859	1.000350
915.503475	0.999609
915.809050	1.000511
916.114585	0.998007
916.420081	1.000529
916.725536	1.000512
917.030952	1.000915
917.336328	1.000169
917.641665	1.001027
917.946961	0.999679
918.252218	1.001374
918.557435	1.000444
918.862612	1.001510
919.167750	1.000722
919.472848	0.999645
919.777906	0.998911
920.082925	1.001138
920.387904	1.000164
920.692843	1.000375
920.997743	0.998969
921.302603	1.000565
921.607423	1.000396
921.912204	1.000227
922.216946	0.999195
922.521647	0.998954
922.826310	1.000114
923.130932	1.000608
923.435516	0.999031
923.740059	0.999841
924.044564	0.999396
924.349028	1.000266
924.653454	1.000918
924.957840	1.001840
925.262186	1.000384
925.566493	0.999895
925.870761	1.000777
926.174989	1.000127
926.479178	1.000329
926.783328	1.000511
927.087438	1.000934
927.391509	0.999301
927.695541	1.001684
927.999533	0.999537
928.303486	0.999601
928.607400	1.000909
928.911275	0.999731
929.215110	1.000728
929.518906	1.000269
929.822663	0.999739
930.126381	1.001829
930.430060	1.000590
930.733699	1.000100
931.037299	0.999166
931.340861	1.001650
931.644383	1.000215
931.947866	0.999644
932.251309	1.000947
932.554714	0.999895
932.858080	1.000004
933.161407	0.999867
933.464694	0.999802
933.767943	1.000064
934.071153	0.999548
934.374323	1.000241
934.677455	1.000622
934.980548	1.000778
935.283602	0.999073
935.586617	1.000080
935.889593	0.999373
936.192530	0.998900
936.495428	1.000091
936.798287	1.000739
937.101108	1.000898
937.403890	0.999125
937.706632	1.000136
938.009336	1.000422
938.312002	1.000681
938.614628	1.000497
938.917216	1.000719
939.219765	0.999221
939.522275	1.000828
939.824747	1.000971
940.127179	1.000126
940.429573	1.000158
940.731929	1.000019
941.034246	0.999390
941.336524	0.999877
941.638763	1.000862
941.940964	1.000681
942.243126	0.999179
942.545250	1.000811
942.847335	0.999855
943.149381	1.000196
943.451389	1.000423
943.753359	0.999750
944.055290	1.001874
944.357182	1.000623
944.659036	0.998728
944.960851	0.999776
945.262628	1.000544
945.564367	1.000094
945.866067	1.000283
946.167729	1.001032
946.469352	1.000446
946.770937	0.999388
947.072484	1.000618
947.373992	1.000617
947.675462	1.000338
947.976893	0.999321
948.278286	0.999653
948.579641	1.000889
948.880958	1.000361
949.182236	1.000195
949.483476	1.000152
949.784678	0.999710
950.085841	0.999904
950.386967	0.999482
950.688054	0.999649
950.989103	1.000710
951.290114	0.999891
951.591087	1.000159
951.892021	1.001005
952.192917	0.999758
952.493776	0.999716
952.794596	1.000643
953.095378	1.000765
953.396122	1.000520
953.696828	0.998695
953.997496	0.999176
954.298126	1.001127
954.598718	1.000008
954.899272	1.001179
955.199788	1.000069
955.500266	1.000969
955.800706	1.000869
956.101108	1.000791
956.401472	1.000728
956.701798	1.001485
957.002087	0.999767
957.302337	0.999252
957.602550	1.001026
957.902724	1.000204
958.202861	1.000502
958.502960	1.000224
958.803022	0.998907
959.103045	1.001384
959.403031	1.000262
959.702979	0.999769
960.002889	0.999958
960.302762	0.998946
960.602596	1.000560
960.902393	0.998219
961.202153	0.999789
961.501875	1.001231
961.801559	0.999640
962.101205	1.000133
962.400814	0.999404
962.700385	1.000555
962.999918	0.999273
963.299414	0.999983
963.598873	1.000051
963.898293	1.000279
964.197677	0.999440
964.497022	1.000019
964.796331	1.001228
965.095601	1.000060
965.394835	1.000273
965.694030	1.000436
965.993189	0.999885
966.292309	0.999457
966.591393	1.000401
966.890439	0.999927
967.189447	0.999250
967.488419	1.001489
967.787353	0.998952
968.086249	0.998994
968.385108	0.999867
968.683930	1.000366
968.982714	1.000788
969.281462	1.001012
969.580172	0.999449
969.878844	0.999884
970.177480	1.000347
970.476078	1.001545
970.774639	1.000084
971.073162	1.001552
971.371649	0.999437
971.670098	0.999397
971.968510	1.000968
972.266885	0.999069
972.565223	1.000348
972.863524	1.000214
973.161788	1.000310
973.460014	1.001726
973.758204	0.999790
974.056356	1.000493
974.354471	0.999794
974.652550	1.000921
974.950591	0.999679
975.248595	1.001124
975.546563	1.001245
975.844493	1.002615
976.142386	1.000726
976.440243	1.001481
976.738062	1.000191
977.035845	1.001454
977.333590	1.000863
977.631299	1.001647
977.928971	1.000683
978.226606	1.000102
978.524204	0.999650
978.821765	1.001077
979.119290	0.999950
979.416777	0.999558
979.714228	1.001066
980.011642	0.999719
980.309020	0.999948
980.606360	1.000575
980.903664	1.001815
981.200931	0.999801
981.498162	0.999022
981.795356	0.999848
982.092513	0.999646
982.389633	1.000304
982.686717	0.999633
982.983764	1.000887
983.280775	0.999918
983.577749	1.000003
983.874686	0.999865
984.171587	0.998308
984.468451	1.001148
984.765279	1.000840
985.062070	0.999347
985.358824	1.000152
985.655543	0.999431
985.952224	0.998874
986.248869	1.000320
986.545478	1.001155
986.842050	1.000679
987.138586	0.999300
987.435086	0.999257
987.731549	1.000914
988.027975	1.000548
988.324366	0.999679
988.620719	0.999340
988.917037	0.998691
989.213318	1.000410
989.509563	1.000769
989.805772	1.000383
990.101944	1.000139
990.398080	0.999043
990.694180	0.999602
990.990244	1.000701
991.286271	1.000116
991.582262	1.000436
991.878217	0.999796
992.174136	1.001773
992.470019	1.000002
992.765865	1.000260
993.061676	1.000293
993.357450	1.000082
993.653188	0.999152
993.948890	1.000194
994.244556	1.000403
994.540186	0.998362
994.835780	0.998463
995.131337	0.999981
995.426859	0.999497
995.722345	1.000727
996.017795	1.001254
996.313208	0.999177
996.608586	1.000161
996.903928	1.000404
997.199234	0.999757
997.494504	1.000562
997.789738	1.000485
998.084936	0.999972
998.380099	1.001233
998.675225	1.001264
998.970316	1.000193
999.265371	1.001153
999.560390	1.000528
999.855373	1.000155
1000.150320	1.000423
1000.445232	0.999674
1000.740108	1.000501
1001.034948	0.999294
1001.329752	1.001843
1001.624521	1.000506
1001.919254	0.999600
1002.213951	1.000237
1002.508613	1.000004
1002.803239	0.999621
1003.097829	1.000623
1003.392384	1.001209
1003.686903	1.000220
1003.981386	1.000820
1004.275834	1.000582
1004.570246	0.999212
1004.864623	1.000994
1005.158964	1.000634
1005.453270	1.000680
1005.747540	0.999843
1006.041775	1.000415
1006.335974	1.001310
1006.630138	1.000763
1006.924266	1.001194
1007.218359	1.001586
1007.512416	1.000662
1007.806438	0.999585
1008.100425	1.001263
1008.394376	1.000528
1008.688292	0.999846
1008.982172	1.001384
1009.276017	1.000484
1009.569827	0.999045
1009.863602	1.001955
1010.157341	1.000817
1010.451045	1.001080
1010.744714	1.000703
1011.038347	1.000110
1011.331945	1.000820
1011.625508	0.999520
1011.919036	0.999847
1012.212528	1.000172
1012.505986	0.999335
1012.799408	1.000159
1013.092795	1.000945
1013.386147	0.999347
1013.679464	0.999881
1013.972745	0.999330
1014.265992	0.999690
1014.559204	1.001387
1014.852380	1.001893
1015.145521	1.000896
1015.438628	1.000516
1015.731699	1.000394
1016.024736	1.000619
1016.317737	1.000667
1016.610703	0.999281
1016.903635	1.000428
1017.196531	0.999507
1017.489393	1.000994
1017.782219	1.000496
1018.075011	1.000159
1018.367768	1.000520
1018.660490	1.000825
1018.953177	1.000825
1019.245829	1.000825
