Dividing Wavelength (nm)	Counts (n)	Blue Motor Position (mm): 0.000000	Red Motor Position (mm): 49.800000	
326.493990	1.001222
326.888308	1.001222
327.282561	1.001222
327.676750	1.000445
328.070874	0.999112
328.464933	0.999383
328.858929	1.000275
329.252859	0.998716
329.646726	1.000138
330.040528	1.000462
330.434265	0.998841
330.827938	1.001714
331.221547	1.000233
331.615091	0.999619
332.008571	1.000465
332.401986	1.000322
332.795338	1.001212
333.188625	0.998610
333.581847	0.999863
333.975006	1.000206
334.368100	1.000544
334.761129	1.000065
335.154095	1.000893
335.546996	0.999685
335.939833	0.998443
336.332606	1.000119
336.725315	1.000639
337.117960	1.001030
337.510540	0.999714
337.903056	1.000467
338.295508	0.999375
338.687896	0.999863
339.080220	1.000771
339.472480	1.001193
339.864676	0.999764
340.256807	1.000581
340.648875	1.001638
341.040879	1.000077
341.432818	0.999916
341.824694	0.999539
342.216506	1.002002
342.608253	1.001346
342.999937	0.999672
343.391557	1.000453
343.783113	0.999634
344.174605	1.001854
344.566033	1.001352
344.957397	0.999762
345.348697	1.001344
345.739934	0.999470
346.131106	1.000499
346.522215	0.999365
346.913260	1.000586
347.304241	1.000144
347.695159	0.998078
348.086012	0.999287
348.476802	1.000018
348.867528	1.000500
349.258191	0.999056
349.648789	1.000883
350.039324	0.999455
350.429796	1.000630
350.820203	0.999737
351.210548	1.000450
351.600828	0.998520
351.991045	1.000983
352.381198	0.998567
352.771288	1.001539
353.161314	0.999807
353.551276	1.000419
353.941175	1.000290
354.331010	0.999551
354.720782	1.000938
355.110490	0.999327
355.500135	1.000686
355.889717	0.999908
356.279235	0.999541
356.668689	0.999054
357.058080	1.000373
357.447408	0.999863
357.836672	1.000491
358.225873	1.001377
358.615010	1.001227
359.004084	1.001506
359.393095	1.000643
359.782043	0.999971
360.170927	1.000968
360.559748	1.000809
360.948505	0.999995
361.337199	1.000149
361.725830	0.999848
362.114398	1.000074
362.502903	1.000763
362.891344	1.001409
363.279722	0.999654
363.668037	1.000969
364.056289	0.999713
364.444478	1.002081
364.832603	1.000191
365.220665	1.000463
365.608665	1.000017
365.996601	0.998809
366.384474	1.000618
366.772284	0.999700
367.160031	0.998921
367.547715	0.998376
367.935336	1.001216
368.322893	0.999641
368.710388	0.999497
369.097820	0.999712
369.485189	0.999356
369.872495	0.999723
370.259738	0.998299
370.646918	0.999829
371.034035	1.000939
371.421090	0.999852
371.808081	0.999651
372.195010	1.001409
372.581875	1.000085
372.968678	0.999301
373.355418	0.999651
373.742096	0.999955
374.128710	1.001354
374.515262	0.999532
374.901751	1.000102
375.288177	1.000339
375.674540	1.000626
376.060841	0.999389
376.447079	1.000983
376.833254	0.999691
377.219367	0.999719
377.605417	1.000837
377.991404	1.001302
378.377329	0.999230
378.763191	1.000953
379.148991	1.000508
379.534727	0.999819
379.920402	1.000577
380.306013	1.000019
380.691563	1.001379
381.077049	1.000210
381.462474	1.000525
381.847835	1.000902
382.233134	1.000492
382.618371	1.000835
383.003545	0.999891
383.388657	0.999594
383.773706	1.000528
384.158693	0.999501
384.543618	1.000697
384.928480	1.000979
385.313280	1.000624
385.698017	1.001513
386.082692	1.001069
386.467305	1.000995
386.851856	0.999845
387.236344	1.000432
387.620770	0.999654
388.005133	1.000849
388.389435	1.000940
388.773674	1.000499
389.157851	1.000139
389.541965	1.000301
389.926018	0.999943
390.310008	1.000880
390.693936	1.000313
391.077802	1.000846
391.461606	1.000094
391.845348	1.000203
392.229027	1.001674
392.612645	1.000661
392.996200	1.001273
393.379694	0.999724
393.763125	1.000280
394.146494	1.001271
394.529801	1.000374
394.913047	1.000681
395.296230	1.000283
395.679351	1.000134
396.062410	1.000538
396.445408	1.000431
396.828343	1.000310
397.211217	1.000539
397.594028	1.001357
397.976778	1.000271
398.359466	1.000679
398.742092	1.000744
399.124656	1.000560
399.507158	1.000761
399.889598	1.000889
400.271977	1.001215
400.654294	1.000618
401.036549	1.001191
401.418742	1.001854
401.800874	1.000775
402.182944	1.000890
402.564952	0.999770
402.946898	1.001463
403.328783	1.001088
403.710606	1.000789
404.092367	1.001269
404.474067	1.001155
404.855705	1.001210
405.237282	1.001048
405.618797	1.000440
406.000250	1.000722
406.381642	1.001288
406.762972	1.000573
407.144240	1.002032
407.525447	1.001363
407.906593	1.001277
408.287677	1.000674
408.668700	1.000876
409.049661	1.000372
409.430560	1.000672
409.811399	1.000512
410.192176	1.000868
410.572891	1.000454
410.953545	1.001378
411.334138	0.999400
411.714669	1.000854
412.095139	1.000925
412.475547	1.001162
412.855894	1.000887
413.236180	1.001013
413.616405	1.001445
413.996568	1.000809
414.376670	1.000274
414.756711	1.000652
415.136691	1.001118
415.516609	1.000612
415.896466	0.999865
416.276262	1.000199
416.655997	1.000320
417.035670	0.999956
417.415283	0.999656
417.794834	1.000713
418.174324	1.000914
418.553753	1.001039
418.933121	1.000776
419.312428	1.001106
419.691674	1.000096
420.070859	1.001056
420.449983	1.001545
420.829045	1.001178
421.208047	1.001414
421.586988	1.001587
421.965867	1.000943
422.344686	1.001729
422.723444	1.000717
423.102141	1.001284
423.480777	1.000961
423.859352	1.000692
424.237866	1.000599
424.616319	1.001265
424.994712	1.000780
425.373044	1.001251
425.751314	1.000283
426.129524	1.001118
426.507673	1.000521
426.885762	1.001484
427.263789	1.001186
427.641756	1.001141
428.019662	1.001266
428.397508	1.000763
428.775292	1.000252
429.153016	1.001282
429.530679	1.001166
429.908282	1.001410
430.285824	1.000707
430.663305	1.000507
431.040726	1.000201
431.418086	1.002271
431.795385	1.002387
432.172624	1.001038
432.549802	1.001072
432.926920	1.000672
433.303977	1.001112
433.680974	1.001087
434.057910	1.001095
434.434786	1.001046
434.811601	1.000506
435.188355	1.000253
435.565050	1.000559
435.941683	1.000190
436.318257	1.002127
436.694770	1.000414
437.071222	1.001228
437.447614	1.000786
437.823946	1.001487
438.200218	1.000451
438.576429	1.001576
438.952580	1.001402
439.328670	1.000287
439.704700	1.001259
440.080670	1.000425
440.456580	1.000665
440.832429	1.000580
441.208218	1.001413
441.583947	1.000708
441.959616	1.001728
442.335224	1.001272
442.710773	1.001714
443.086261	1.000660
443.461689	1.001202
443.837057	1.000342
444.212365	1.001358
444.587612	1.000737
444.962800	1.000350
445.337927	1.000417
445.712995	1.000798
446.088002	1.001235
446.462949	1.001201
446.837837	1.001344
447.212664	1.001369
447.587431	1.001629
447.962139	1.000130
448.336786	1.000845
448.711374	1.001233
449.085901	1.000728
449.460369	1.001346
449.834776	1.000997
450.209124	1.001340
450.583412	1.001203
450.957640	1.001101
451.331808	1.000530
451.705917	1.001227
452.079965	1.000641
452.453954	1.001418
452.827883	1.000884
453.201752	1.001158
453.575562	1.002339
453.949311	1.000873
454.323001	1.000987
454.696632	1.001186
455.070202	1.000855
455.443713	1.000634
455.817164	1.000657
456.190556	1.001510
456.563888	1.000974
456.937160	1.001472
457.310373	1.000405
457.683526	1.001381
458.056619	1.000891
458.429653	1.001562
458.802628	1.000579
459.175542	1.000005
459.548398	1.001747
459.921194	1.000798
460.293930	1.000827
460.666607	1.000345
461.039224	1.000038
461.411782	1.001015
461.784280	1.000653
462.156719	1.001287
462.529099	1.000635
462.901419	1.001085
463.273680	1.000970
463.645882	1.000946
464.018024	1.001610
464.390106	1.001360
464.762130	1.001837
465.134094	1.000944
465.505999	1.001310
465.877845	1.000769
466.249631	1.001242
466.621358	1.001290
466.993026	1.001499
467.364634	1.001463
467.736184	1.001482
468.107674	1.001647
468.479105	1.000195
468.850477	1.001423
469.221790	1.001806
469.593043	1.001121
469.964238	1.002016
470.335373	1.000969
470.706449	1.001095
471.077467	1.001335
471.448425	1.000852
471.819324	1.001550
472.190164	1.000965
472.560945	1.001640
472.931667	1.001233
473.302330	1.001154
473.672934	1.001669
474.043479	1.001454
474.413965	1.001263
474.784393	1.001867
475.154761	1.001299
475.525070	1.000451
475.895321	1.001213
476.265513	1.000865
476.635645	1.001368
477.005719	1.001278
477.375734	1.001003
477.745691	1.001459
478.115588	1.001379
478.485427	1.001176
478.855207	1.000936
479.224928	1.001145
479.594591	1.001178
479.964194	1.001383
480.333739	1.000894
480.703226	1.001460
481.072653	1.002202
481.442022	1.001584
481.811333	1.000579
482.180584	1.001454
482.549777	1.000949
482.918912	1.001377
483.287988	1.001844
483.657005	1.001068
484.025964	1.001816
484.394864	1.002038
484.763706	1.001292
485.132489	1.001365
485.501213	1.001096
485.869879	1.001561
486.238487	1.001214
486.607036	1.001270
486.975527	1.000602
487.343959	1.001363
487.712333	1.000740
488.080648	1.000799
488.448905	1.001390
488.817104	1.001524
489.185244	1.001654
489.553326	1.001194
489.921350	1.001255
490.289315	1.000986
490.657222	1.001750
491.025070	1.001393
491.392861	1.001551
491.760593	1.001856
492.128267	1.001114
492.495883	1.000749
492.863440	1.001107
493.230939	1.002110
493.598380	1.001221
493.965763	1.001327
494.333088	1.001061
494.700354	1.000994
495.067563	1.000840
495.434713	1.001438
495.801805	1.001251
496.168839	1.001167
496.535815	1.000898
496.902733	1.001361
497.269593	1.000996
497.636395	1.000940
498.003139	1.000488
498.369825	1.001830
498.736453	1.001081
499.103023	1.000972
499.469535	1.001139
499.835989	1.001637
500.202385	1.001096
500.568723	1.001041
500.935003	1.001373
501.301226	1.001522
501.667390	1.001022
502.033497	1.001165
502.399546	1.001791
502.765537	1.000970
503.131470	1.001070
503.497345	1.001352
503.863163	1.001962
504.228923	1.001006
504.594625	1.001235
504.960269	1.001607
505.325856	1.001505
505.691385	1.001441
506.056856	1.000608
506.422270	1.001485
506.787625	1.001241
507.152924	1.001270
507.518164	1.000528
507.883347	1.001176
508.248472	1.001362
508.613540	1.001603
508.978550	1.001164
509.343503	1.000678
509.708398	1.001161
510.073236	1.001399
510.438016	1.002198
510.802738	1.000833
511.167403	1.000980
511.532010	1.001323
511.896561	1.001296
512.261053	1.001993
512.625488	1.000761
512.989866	1.001489
513.354186	1.000765
513.718449	1.000995
514.082655	1.001599
514.446803	1.001166
514.810894	1.001266
515.174927	1.001276
515.538904	1.001408
515.902822	1.001093
516.266684	1.001165
516.630488	1.001917
516.994235	1.000572
517.357925	1.001287
517.721558	1.001366
518.085133	1.000508
518.448651	1.002104
518.812112	1.000981
519.175516	1.000510
519.538863	1.001465
519.902152	1.000792
520.265385	1.001116
520.628560	1.001427
520.991678	1.001431
521.354739	1.001401
521.717743	1.001777
522.080690	1.002104
522.443580	1.001204
522.806413	1.001436
523.169189	1.001408
523.531908	1.000226
523.894569	1.001139
524.257174	1.001439
524.619722	1.001419
524.982213	1.001365
525.344647	1.001439
525.707025	1.000838
526.069345	1.000967
526.431608	1.000924
526.793815	1.001809
527.155964	1.001449
527.518057	1.002046
527.880093	1.001239
528.242072	1.001068
528.603995	1.000972
528.965860	1.002006
529.327669	1.001456
529.689421	1.000888
530.051117	1.001176
530.412755	1.001399
530.774337	1.001411
531.135862	1.001273
531.497331	1.001372
531.858743	1.001580
532.220098	1.001639
532.581396	1.001870
532.942638	1.001542
533.303824	1.000968
533.664953	1.002004
534.026025	1.001126
534.387040	1.000986
534.747999	1.001268
535.108902	1.001574
535.469748	1.000903
535.830537	1.001036
536.191270	1.001506
536.551947	1.001630
536.912567	1.001180
537.273131	1.002304
537.633638	1.001006
537.994089	1.000638
538.354483	1.000833
538.714821	1.001205
539.075103	1.000880
539.435328	1.001471
539.795497	1.001775
540.155609	1.000093
540.515665	1.001254
540.875665	1.000729
541.235609	1.001876
541.595496	1.001090
541.955328	1.000972
542.315102	1.001224
542.674821	1.001072
543.034483	1.000498
543.394090	1.001051
543.753640	1.001292
544.113134	1.001364
544.472571	1.001734
544.831953	1.002257
545.191278	1.001260
545.550548	1.001868
545.909761	1.000331
546.268918	1.001456
546.628019	1.001562
546.987064	1.000408
547.346053	1.000712
547.704986	1.001763
548.063863	1.001027
548.422684	1.001682
548.781449	1.001929
549.140158	1.001193
549.498811	1.001639
549.857408	1.001139
550.215949	1.001514
550.574434	1.000862
550.932864	1.000905
551.291237	1.001906
551.649555	1.001281
552.007817	1.001036
552.366022	1.001523
552.724173	1.001512
553.082267	1.001605
553.440305	1.000879
553.798288	1.001324
554.156215	1.001233
554.514086	1.001537
554.871902	1.001031
555.229661	1.001247
555.587365	1.001178
555.945014	1.001982
556.302606	1.001320
556.660143	1.000868
557.017625	1.000871
557.375050	1.001136
557.732421	1.001042
558.089735	1.001449
558.446994	1.002403
558.804197	1.001432
559.161345	1.001165
559.518437	1.001849
559.875474	1.000972
560.232455	1.000781
560.589381	1.001358
560.946251	1.000763
561.303065	1.001500
561.659825	1.000785
562.016528	1.001071
562.373177	1.000745
562.729770	1.000889
563.086307	1.001134
563.442789	1.001238
563.799216	1.001335
564.155587	1.000897
564.511904	1.000975
564.868164	1.000466
565.224370	1.001274
565.580520	1.000848
565.936615	1.001068
566.292654	1.000961
566.648638	1.001184
567.004567	1.000747
567.360441	1.001606
567.716260	1.001329
568.072023	1.000765
568.427732	1.000936
568.783385	1.001525
569.138982	1.001080
569.494525	1.000978
569.850013	1.001402
570.205445	1.000861
570.560823	1.001003
570.916145	1.000663
571.271412	1.001392
571.626625	1.001074
571.981782	1.001037
572.336884	1.001306
572.691931	1.001524
573.046923	1.000853
573.401860	1.001375
573.756743	1.001235
574.111570	1.001116
574.466342	1.001558
574.821059	1.001522
575.175722	1.001568
575.530330	1.001184
575.884882	1.000690
576.239380	1.001267
576.593823	1.001016
576.948211	1.000607
577.302544	1.001210
577.656823	1.000552
578.011047	1.001173
578.365216	1.000788
578.719330	1.000948
579.073389	1.001381
579.427394	1.000990
579.781344	1.001361
580.135239	1.002034
580.489080	1.000524
580.842866	1.001117
581.196597	1.001176
581.550273	1.000178
581.903895	1.001076
582.257463	1.000215
582.610975	1.001623
582.964434	1.001153
583.317837	1.001967
583.671186	1.001239
584.024481	1.000567
584.377721	1.001103
584.730906	1.000800
585.084037	1.001108
585.437113	1.001223
585.790135	1.001047
586.143103	1.000438
586.496016	1.001508
586.848874	1.001426
587.201679	1.001064
587.554428	1.002008
587.907124	1.001164
588.259765	1.000753
588.612352	1.001553
588.964884	1.001375
589.317362	1.001122
589.669786	1.001500
590.022155	1.001439
590.374470	1.000885
590.726731	1.000645
591.078937	1.000819
591.431090	0.999558
591.783188	1.000667
592.135232	1.002304
592.487222	1.001424
592.839157	1.000399
593.191038	1.001519
593.542866	1.000922
593.894639	1.002189
594.246358	1.000441
594.598022	1.000858
594.949633	1.000986
595.301190	1.000802
595.652692	1.001456
596.004141	1.001518
596.355535	1.001033
596.706876	1.000543
597.058162	1.001378
597.409395	1.000734
597.760573	1.000181
598.111698	1.001003
598.462768	1.000410
598.813785	0.999739
599.164748	1.001430
599.515657	1.000123
599.866511	1.000904
600.217312	1.001050
600.568060	1.001534
600.918753	1.001098
601.269392	1.000963
601.619978	1.000935
601.970510	1.001197
602.320988	1.001099
602.671412	1.000943
603.021783	1.001530
603.372100	1.002168
603.722363	1.001139
604.072572	1.000734
604.422728	1.001087
604.772830	1.001100
605.122878	1.001275
605.472872	1.000943
605.822813	1.000518
606.172701	1.000775
606.522534	1.001560
606.872314	1.001205
607.222041	1.000500
607.571714	1.001536
607.921333	1.000189
608.270899	1.000708
608.620411	1.000836
608.969870	1.000988
609.319276	1.000297
609.668627	1.000995
610.017926	1.000466
610.367171	1.000805
610.716362	1.000430
611.065500	1.000746
611.414585	1.000642
611.763616	1.001259
612.112594	1.000828
612.461518	1.000382
612.810389	1.000830
613.159207	1.000864
613.507971	1.000987
613.856682	1.001356
614.205340	1.001050
614.553945	1.000295
614.902496	1.000812
615.250994	1.000595
615.599439	1.000979
615.947830	1.000804
616.296169	1.000747
616.644454	1.000406
616.992686	1.000546
617.340864	0.999764
617.688990	1.001269
618.037063	1.000866
618.385082	1.000450
618.733048	1.000497
619.080961	1.001412
619.428821	1.000988
619.776628	1.000144
620.124382	1.000075
620.472083	0.999944
620.819731	1.001552
621.167326	1.001399
621.514868	1.000264
621.862357	1.000924
622.209793	1.001381
622.557176	0.999596
622.904506	1.000714
623.251783	0.999931
623.599007	1.001037
623.946179	1.000892
624.293297	1.000868
624.640363	1.000464
624.987376	0.999828
625.334336	1.000672
625.681243	1.000298
626.028097	1.001326
626.374899	1.000727
626.721647	1.000593
627.068343	1.001069
627.414987	1.000866
627.761577	1.000905
628.108115	0.999688
628.454600	1.000249
628.801032	1.000910
629.147412	1.001245
629.493739	1.000511
629.840014	1.000722
630.186236	1.000876
630.532405	1.000802
630.878521	1.000306
631.224585	1.000679
631.570597	1.000435
631.916556	1.000429
632.262462	1.001103
632.608316	1.000576
632.954117	1.000845
633.299866	0.999864
633.645562	1.000434
633.991206	1.000527
634.336797	1.000941
634.682336	1.001298
635.027823	1.000848
635.373257	1.000484
635.718639	1.000963
636.063968	1.000536
636.409245	1.000565
636.754470	1.000359
637.099642	1.000711
637.444762	1.000744
637.789829	1.000639
638.134845	1.000079
638.479808	1.000735
638.824719	1.001147
639.169577	0.999639
639.514383	1.000307
639.859137	1.000041
640.203839	1.000322
640.548489	1.000058
640.893086	1.000123
641.237632	1.000642
641.582125	1.000146
641.926566	0.998829
642.270955	1.000941
642.615292	1.000558
642.959576	1.000573
643.303809	1.000344
643.647990	1.000420
643.992118	1.000603
644.336195	1.000867
644.680219	1.000806
645.024192	1.001108
645.368112	0.999394
645.711981	1.001156
646.055797	1.000279
646.399562	0.999840
646.743274	0.998602
647.086935	1.000597
647.430544	1.000549
647.774101	1.000653
648.117606	1.000126
648.461059	0.999763
648.804460	1.000144
649.147810	1.000039
649.491108	1.000733
649.834354	1.000020
650.177548	1.000874
650.520690	1.000182
650.863781	1.000565
651.206820	1.000529
651.549807	1.000932
651.892742	1.000651
652.235626	1.000364
652.578458	1.000270
652.921238	1.000300
653.263967	1.001435
653.606644	1.000731
653.949269	0.999850
654.291843	1.000701
654.634365	1.000144
654.976836	1.000640
655.319255	1.000419
655.661622	1.000627
656.003938	0.999991
656.346203	1.000512
656.688416	1.000789
657.030577	1.000228
657.372687	0.999843
657.714746	1.000139
658.056753	1.000009
658.398708	1.000858
658.740612	1.000619
659.082465	1.000801
659.424266	1.000640
659.766016	0.999369
660.107715	1.000498
660.449362	1.000000
660.790958	0.999545
661.132503	0.999658
661.473996	1.000031
661.815438	0.999970
662.156829	0.999847
662.498168	1.000306
662.839456	0.999996
663.180693	1.000975
663.521879	1.000678
663.863013	1.000388
664.204097	1.000046
664.545129	1.000349
664.886110	1.000583
665.227040	1.000282
665.567918	0.999209
665.908746	1.000435
666.249522	0.999867
666.590248	0.999721
666.930922	0.999835
667.271545	1.000374
667.612118	1.000656
667.952639	0.999868
668.293109	1.000937
668.633528	1.000513
668.973896	0.999740
669.314213	0.999642
669.654480	1.000185
669.994695	1.000394
670.334859	1.000542
670.674973	0.999671
671.015035	0.999901
671.355047	0.999280
671.695008	0.999500
672.034918	1.000190
672.374777	1.000187
672.714585	0.999434
673.054342	1.000696
673.394049	0.998852
673.733705	0.998862
674.073310	0.999928
674.412864	1.000112
674.752368	0.999921
675.091820	1.000548
675.431223	1.000131
675.770574	1.000781
676.109875	1.000537
676.449125	1.000219
676.788324	0.999501
677.127473	1.001115
677.466571	1.000043
677.805619	1.000381
678.144616	1.000575
678.483562	0.999549
678.822458	0.998981
679.161303	1.000478
679.500098	0.999432
679.838842	1.000492
680.177535	1.000350
680.516179	1.000317
680.854771	0.999920
681.193314	1.000430
681.531805	1.000297
681.870247	0.999517
682.208638	0.999678
682.546978	0.999359
682.885268	0.999740
683.223508	0.999751
683.561697	0.999531
683.899836	1.000280
684.237925	1.000967
684.575963	0.999480
684.913951	0.999976
685.251889	1.001075
685.589776	1.000065
685.927614	1.000174
686.265401	0.999710
686.603137	0.999601
686.940824	0.998909
687.278460	0.999899
687.616046	1.000235
687.953582	0.999094
688.291068	0.999750
688.628504	1.000504
688.965889	0.999977
689.303224	0.999504
689.640510	0.999922
689.977745	1.000361
690.314930	1.000452
690.652065	0.999812
690.989150	1.000769
691.326185	0.999269
691.663170	1.000093
692.000105	1.000164
692.336990	1.000465
692.673825	1.000345
693.010610	1.000928
693.347345	0.998878
693.684030	1.000032
694.020665	1.000939
694.357251	1.000006
694.693786	1.000083
695.030272	0.999893
695.366707	0.999863
695.703093	0.999402
696.039429	0.999378
696.375716	0.999753
696.711952	0.998739
697.048139	1.000737
697.384276	1.000102
697.720363	0.999266
698.056400	0.999128
698.392388	0.999867
698.728326	1.000080
699.064214	1.000775
699.400053	1.000062
699.735842	1.001272
700.071581	1.000871
700.407270	1.000693
700.742910	1.000123
701.078501	1.000855
701.414042	1.000704
701.749533	1.000143
702.084974	0.999748
702.420366	1.000338
702.755709	1.000130
703.091002	0.999666
703.426246	0.999366
703.761440	1.000599
704.096584	0.999378
704.431679	0.999652
704.766725	0.999330
705.101721	0.999507
705.436668	0.999460
705.771565	1.000023
706.106413	1.000525
706.441212	1.000710
706.775961	0.999599
707.110661	0.999805
707.445311	0.999604
707.779913	1.000300
708.114465	1.000427
708.448967	0.999898
708.783421	0.999877
709.117825	0.999701
709.452180	1.000185
709.786485	0.999498
710.120742	0.999248
710.454949	0.999535
710.789107	1.000202
711.123216	1.000075
711.457275	1.000443
711.791286	0.998347
712.125247	0.999507
712.459159	0.999215
712.793023	1.000423
713.126837	1.000152
713.460602	0.999818
713.794318	0.999579
714.127985	1.000354
714.461602	1.000265
714.795171	0.998972
715.128691	0.999345
715.462162	1.000612
715.795584	0.999147
716.128957	1.000180
716.462281	0.999476
716.795556	0.999590
717.128782	0.999561
717.461960	1.000127
717.795088	1.000041
718.128167	1.000412
718.461198	0.999645
718.794180	1.000109
719.127113	1.000017
719.459997	1.001302
719.792833	1.000740
720.125619	0.999446
720.458357	0.999825
720.791046	1.001275
721.123686	0.999524
721.456278	0.999086
721.788821	0.999496
722.121315	0.998946
722.453761	0.999906
722.786158	1.000042
723.118506	1.000212
723.450805	0.999540
723.783056	0.999739
724.115259	0.998862
724.447412	0.999978
724.779518	1.000127
725.111574	0.999529
725.443582	0.999811
725.775542	0.999309
726.107453	1.000443
726.439315	0.999285
726.771129	0.999626
727.102895	1.000150
727.434612	0.999240
727.766281	0.998706
728.097901	0.999412
728.429473	1.000587
728.760996	0.998917
729.092471	0.998914
729.423897	0.999343
729.755276	1.000029
730.086606	0.999614
730.417887	0.999616
730.749120	0.999890
731.080305	0.998818
731.411442	0.999872
731.742530	1.001265
732.073570	0.999037
732.404562	0.998946
732.735506	0.999842
733.066401	0.999557
733.397249	0.999675
733.728048	1.000702
734.058798	1.000623
734.389501	0.999362
734.720156	0.999711
735.050762	1.000364
735.381320	0.999941
735.711831	1.001510
736.042293	1.000367
736.372707	0.999734
736.703073	0.998919
737.033391	0.999721
737.363661	1.000175
737.693883	1.000063
738.024056	0.999950
738.354182	0.999256
738.684260	0.999928
739.014290	0.998978
739.344272	0.999207
739.674207	0.999640
740.004093	1.000308
740.333931	0.999623
740.663722	0.999774
740.993464	1.000158
741.323159	0.999611
741.652806	1.000937
741.982405	0.999612
742.311956	0.999411
742.641460	0.999782
742.970915	0.999113
743.300323	1.000155
743.629683	1.000318
743.958996	1.000385
744.288260	1.000090
744.617477	0.999148
744.946647	0.999812
745.275768	0.999458
745.604842	0.999860
745.933869	1.000754
746.262847	0.998246
746.591778	0.998001
746.920662	0.998825
747.249498	0.999127
747.578286	0.999588
747.907027	0.999008
748.235720	1.001023
748.564365	0.999632
748.892963	0.999181
749.221514	0.997723
749.550017	1.000257
749.878473	0.998473
750.206881	0.998954
750.535242	1.001473
750.863555	1.000812
751.191821	0.999637
751.520039	0.999445
751.848210	1.000468
752.176334	0.999168
752.504411	1.000175
752.832440	0.999074
753.160421	0.999944
753.488356	1.000112
753.816243	1.000166
754.144082	0.999948
754.471875	1.000108
754.799620	0.999415
755.127318	1.000080
755.454969	0.999366
755.782572	0.998870
756.110129	0.999554
756.437638	1.000282
756.765100	0.999476
757.092515	0.999040
757.419882	1.000574
757.747203	0.999867
758.074477	0.999264
758.401703	0.999931
758.728882	0.998321
759.056014	0.999109
759.383099	0.999803
759.710138	0.998982
760.037129	1.000211
760.364073	0.999721
760.690970	0.999828
761.017820	1.000564
761.344623	1.000403
761.671379	0.999720
761.998088	1.000181
762.324751	1.000555
762.651366	1.000621
762.977935	0.999292
763.304456	0.999062
763.630931	0.998928
763.957359	0.999513
764.283740	1.000643
764.610074	0.999683
764.936362	0.999877
765.262602	0.999226
765.588796	0.999701
765.914943	1.000927
766.241044	1.000336
766.567097	1.000445
766.893104	1.000042
767.219064	0.998644
767.544978	0.998961
767.870845	1.000366
768.196665	0.999251
768.522438	0.998981
768.848165	0.999776
769.173846	0.999498
769.499479	1.000658
769.825066	1.000319
770.150607	1.000838
770.476101	0.999559
770.801548	0.998911
771.126949	0.999307
771.452303	0.998091
771.777611	1.001165
772.102872	1.000732
772.428087	0.998644
772.753256	1.000005
773.078378	0.999828
773.403453	0.999404
773.728482	1.001535
774.053465	0.999467
774.378401	1.001204
774.703291	1.000288
775.028135	0.999850
775.352932	1.000902
775.677683	0.999532
776.002388	0.999170
776.327046	0.997865
776.651658	0.998600
776.976224	0.999754
777.300743	1.000049
777.625216	1.000394
777.949643	0.999950
778.274024	1.000649
778.598359	1.000549
778.922647	1.000259
779.246889	0.999833
779.571086	1.000725
779.895236	1.000459
780.219339	1.000015
780.543397	1.000562
780.867409	1.000681
781.191374	0.999738
781.515294	1.000596
781.839167	0.999311
782.162995	1.001107
782.486776	0.999980
782.810511	1.000292
783.134201	0.999456
783.457844	0.999872
783.781441	0.999594
784.104993	0.999473
784.428498	1.000095
784.751958	0.999129
785.075372	1.000829
785.398739	1.000471
785.722061	1.001102
786.045337	0.999292
786.368568	1.000716
786.691752	1.000405
787.014891	0.999094
787.337983	1.000298
787.661030	0.999598
787.984031	1.000376
788.306987	1.000047
788.629897	1.000368
788.952760	0.998817
789.275579	1.000759
789.598351	0.998607
789.921078	0.999925
790.243759	0.998973
790.566395	0.999566
790.888984	0.999699
791.211529	0.999997
791.534027	0.999907
791.856480	0.999405
792.178888	1.000210
792.501249	1.000914
792.823566	0.999908
793.145836	0.999523
793.468062	1.000332
793.790241	0.999414
794.112375	0.999182
794.434464	0.999049
794.756507	1.000244
795.078505	1.000678
795.400457	1.000655
795.722364	0.999809
796.044226	0.999685
796.366042	0.999894
796.687812	0.998690
797.009538	1.000726
797.331218	0.999425
797.652852	1.001704
797.974442	1.001066
798.295986	0.998893
798.617484	0.999584
798.938938	1.000133
799.260346	1.000679
799.581709	1.000452
799.903026	0.999914
800.224299	1.000341
800.545526	1.000809
800.866708	0.999920
801.187845	1.000779
801.508936	1.000638
801.829983	1.001219
802.150984	0.999025
802.471940	1.000183
802.792851	0.998920
803.113717	1.000311
803.434538	1.000308
803.755314	1.000140
804.076045	0.999840
804.396731	0.999846
804.717372	1.000014
805.037967	1.000161
805.358518	1.000844
805.679024	1.001799
805.999485	0.999394
806.319901	1.001362
806.640272	1.000110
806.960598	0.999524
807.280879	0.999757
807.601115	1.000458
807.921306	1.000959
808.241453	0.999451
808.561554	0.999756
808.881611	1.000072
809.201623	1.000764
809.521590	0.999420
809.841513	0.999712
810.161390	0.999920
810.481223	0.999649
810.801011	0.999866
811.120755	1.001111
811.440453	0.999803
811.760107	0.998152
812.079716	0.999634
812.399281	0.999719
812.718801	0.999624
813.038276	1.000061
813.357707	0.999614
813.677093	0.998399
813.996434	1.000402
814.315731	1.000881
814.634983	0.999508
814.954191	0.999759
815.273354	1.000565
815.592473	0.999289
815.911547	1.000151
816.230577	0.999635
816.549562	0.999056
816.868502	1.000116
817.187399	1.000657
817.506250	0.999688
817.825058	1.000268
818.143821	0.999993
818.462539	1.000029
818.781213	1.000672
819.099843	0.999458
819.418429	1.000373
819.736970	1.000402
820.055466	0.999524
820.373919	1.001042
820.692327	0.999971
821.010691	0.999743
821.329011	1.000959
821.647286	0.998620
821.965517	0.998526
822.283704	0.998661
822.601847	0.998982
822.919945	0.999270
823.237999	0.999193
823.556010	0.999594
823.873976	0.999215
824.191897	1.000606
824.509775	1.000121
824.827609	1.000193
825.145398	0.999631
825.463144	1.000746
825.780845	0.999920
826.098502	0.999648
826.416116	0.998396
826.733685	0.999725
827.051210	0.998991
827.368692	0.999095
827.686129	0.999099
828.003522	0.999505
828.320872	0.999125
828.638177	1.000349
828.955439	1.000182
829.272656	1.000937
829.589830	1.000514
829.906960	0.999927
830.224046	0.999180
830.541088	0.998596
830.858086	0.999617
831.175041	1.000019
831.491952	0.999993
831.808819	0.999885
832.125642	1.000107
832.442421	0.999210
832.759157	0.999824
833.075849	0.999892
833.392497	1.000502
833.709101	0.998717
834.025662	0.999495
834.342179	1.000249
834.658653	1.000694
834.975083	0.999879
835.291469	0.998027
835.607811	0.999374
835.924110	0.998177
836.240366	1.000322
836.556578	1.000592
836.872746	1.001034
837.188871	0.999205
837.504952	0.999060
837.820990	1.000456
838.136984	1.000162
838.452935	0.999153
838.768842	1.000628
839.084706	0.999512
839.400526	0.999413
839.716303	0.999379
840.032037	0.999736
840.347727	0.998508
840.663373	1.000804
840.978977	1.001005
841.294537	0.999388
841.610054	0.999742
841.925527	0.999794
842.240957	0.999549
842.556344	0.999465
842.871687	1.000818
843.186987	1.001009
843.502244	0.999679
843.817458	0.999149
844.132629	0.998953
844.447756	1.001237
844.762840	1.000582
845.077881	0.999382
845.392879	1.000163
845.707833	1.000513
846.022745	1.000790
846.337613	1.001263
846.652438	1.001633
846.967221	1.000108
847.281960	0.999087
847.596656	1.000968
847.911309	0.998927
848.225919	1.000035
848.540485	0.999862
848.855009	0.999732
849.169490	1.000200
849.483928	1.000036
849.798323	0.999903
850.112675	1.000220
850.426984	1.000532
850.741251	1.000268
851.055474	1.000449
851.369654	0.999310
851.683792	1.001230
851.997887	1.000009
852.311938	1.002206
852.625947	1.001625
852.939914	1.000573
853.253837	1.000911
853.567718	1.000407
853.881555	1.000189
854.195350	0.998979
854.509103	1.001257
854.822812	1.000200
855.136479	1.000873
855.450103	1.000926
855.763685	0.999478
856.077224	0.999459
856.390720	1.000017
856.704173	1.002138
857.017584	0.999054
857.330953	0.999521
857.644278	1.001568
857.957561	1.001598
858.270802	0.999895
858.584000	1.000163
858.897155	0.999178
859.210268	1.000515
859.523339	0.999044
859.836367	1.000746
860.149352	1.000157
860.462295	0.998012
860.775195	0.999825
861.088054	0.999432
861.400869	0.998884
861.713642	1.000307
862.026373	0.999792
862.339062	0.999609
862.651708	0.999014
862.964312	1.000230
863.276873	0.999681
863.589392	0.998910
863.901869	1.000296
864.214303	1.001080
864.526696	1.000883
864.839045	1.000163
865.151353	0.999009
865.463619	1.000690
865.775842	1.000051
866.088023	1.000149
866.400162	0.999474
866.712258	0.999778
867.024313	1.001095
867.336325	1.000042
867.648296	0.999531
867.960224	1.001274
868.272110	0.999741
868.583954	0.999835
868.895755	1.000360
869.207515	0.999751
869.519233	1.000474
869.830909	1.000059
870.142542	0.999738
870.454134	0.999749
870.765684	1.000060
871.077191	0.998037
871.388657	1.000945
871.700081	0.999182
872.011463	0.999652
872.322803	1.000572
872.634101	0.999521
872.945357	1.001565
873.256571	1.000621
873.567744	1.000166
873.878874	0.999775
874.189963	0.997964
874.501010	0.999195
874.812015	0.999680
875.122979	1.001691
875.433900	1.000168
875.744780	0.999957
876.055618	1.000438
876.366415	1.001113
876.677169	1.000984
876.987882	0.999629
877.298554	1.000053
877.609183	1.000375
877.919771	1.001108
878.230317	1.000177
878.540822	0.999455
878.851285	1.000186
879.161707	1.000080
879.472087	1.000556
879.782425	1.000105
880.092722	1.000289
880.402977	0.999253
880.713191	0.999574
881.023363	0.998969
881.333494	0.999123
881.643583	0.999238
881.953631	0.999104
882.263637	0.999782
882.573602	0.999634
882.883526	1.001306
883.193408	1.000123
883.503248	1.000171
883.813048	0.999274
884.122806	0.998930
884.432522	0.999098
884.742197	1.000545
885.051831	1.000275
885.361424	0.999919
885.670975	1.000098
885.980485	1.001340
886.289954	0.999633
886.599382	1.001370
886.908768	1.000190
887.218113	0.999828
887.527417	0.999528
887.836680	1.000490
888.145901	1.000458
888.455082	1.000072
888.764221	1.000662
889.073319	1.000364
889.382376	1.000148
889.691392	1.000108
890.000366	1.000594
890.309300	1.000590
890.618193	1.000086
890.927044	0.999459
891.235855	1.000553
891.544625	0.999457
891.853353	1.000869
892.162041	1.000259
892.470687	1.000026
892.779293	1.000094
893.087858	0.999083
893.396381	0.999981
893.704864	0.999624
894.013306	0.999529
894.321707	0.999110
894.630068	1.000031
894.938387	1.000400
895.246665	1.000218
895.554903	0.999090
895.863100	1.000528
896.171256	1.000402
896.479371	1.000236
896.787446	1.000233
897.095480	0.998939
897.403473	1.000630
897.711425	0.999965
898.019336	1.001318
898.327207	0.999498
898.635038	1.000331
898.942827	1.000171
899.250576	0.998974
899.558284	0.999873
899.865952	0.999778
900.173579	0.999952
900.481165	1.000246
900.788711	1.001248
901.096216	1.000925
901.403681	0.998734
901.711105	1.001108
902.018489	1.000706
902.325832	1.000446
902.633135	1.000280
902.940397	1.000103
903.247619	1.001270
903.554800	1.000021
903.861941	0.999137
904.169041	1.000497
904.476101	1.000765
904.783121	0.998218
905.090100	0.999538
905.397039	1.000416
905.703938	1.000229
906.010796	0.999936
906.317614	1.000440
906.624391	0.999342
906.931129	1.000221
907.237826	0.999016
907.544483	1.001444
907.851099	0.999785
908.157675	1.000929
908.464211	1.000322
908.770707	1.000127
909.077163	0.999758
909.383578	1.000188
909.689954	0.998029
909.996289	0.998555
910.302584	1.000884
910.608839	1.001126
910.915054	1.000170
911.221229	1.000799
911.527363	0.999839
911.833458	1.000795
912.139513	0.999561
912.445527	0.998464
912.751502	0.999068
913.057436	1.000238
913.363331	0.999892
913.669186	1.000312
913.975000	0.999308
914.280775	1.000231
914.586510	0.999375
914.892205	0.998973
915.197859	1.000176
915.503475	0.999234
915.809050	1.000423
916.114585	0.999282
916.420081	0.999217
916.725536	1.000608
917.030952	1.000430
917.336328	0.999649
917.641665	0.999507
917.946961	0.999732
918.252218	1.001051
918.557435	0.999430
918.862612	1.000846
919.167750	1.001334
919.472848	0.999885
919.777906	0.999874
920.082925	0.999800
920.387904	1.000935
920.692843	0.999472
920.997743	0.998675
921.302603	1.000941
921.607423	0.999871
921.912204	1.000026
922.216946	0.998624
922.521647	0.999362
922.826310	0.999699
923.130932	1.000231
923.435516	0.999007
923.740059	0.999347
924.044564	0.999346
924.349028	1.000499
924.653454	1.000770
924.957840	1.000905
925.262186	1.000338
925.566493	0.999148
925.870761	0.998728
926.174989	1.000909
926.479178	1.001148
926.783328	1.000378
927.087438	1.001171
927.391509	0.998880
927.695541	1.001753
927.999533	0.999586
928.303486	1.000835
928.607400	1.001928
928.911275	0.999405
929.215110	1.000837
929.518906	0.999784
929.822663	0.999156
930.126381	1.000710
930.430060	0.999938
930.733699	1.000216
931.037299	0.998772
931.340861	1.002198
931.644383	1.000232
931.947866	0.998729
932.251309	1.001171
932.554714	0.999702
932.858080	1.000490
933.161407	0.999673
933.464694	1.000488
933.767943	0.999057
934.071153	0.999319
934.374323	1.001201
934.677455	1.000165
934.980548	1.001440
935.283602	0.999091
935.586617	1.000078
935.889593	0.999995
936.192530	0.999199
936.495428	1.000370
936.798287	1.000226
937.101108	1.000881
937.403890	0.999628
937.706632	1.000501
938.009336	0.999716
938.312002	1.000244
938.614628	1.000258
938.917216	1.001060
939.219765	0.999719
939.522275	1.000848
939.824747	1.000516
940.127179	0.999602
940.429573	1.000066
940.731929	0.999238
941.034246	0.999115
941.336524	1.000186
941.638763	1.000467
941.940964	1.000200
942.243126	0.999424
942.545250	1.000724
942.847335	0.999726
943.149381	0.999840
943.451389	1.000727
943.753359	0.998987
944.055290	1.001062
944.357182	1.000970
944.659036	0.998992
944.960851	0.999857
945.262628	1.000612
945.564367	1.000876
945.866067	1.000972
946.167729	1.000242
946.469352	1.000646
946.770937	0.999053
947.072484	1.000892
947.373992	1.000501
947.675462	1.000293
947.976893	1.000397
948.278286	0.999029
948.579641	1.001756
948.880958	1.000493
949.182236	0.999600
949.483476	1.000241
949.784678	0.999386
950.085841	1.000949
950.386967	0.999241
950.688054	1.000132
950.989103	1.001487
951.290114	0.998893
951.591087	0.999476
951.892021	1.001202
952.192917	1.000242
952.493776	0.999423
952.794596	0.999745
953.095378	1.000006
953.396122	1.000587
953.696828	0.998435
953.997496	1.000543
954.298126	1.001709
954.598718	0.999671
954.899272	1.001146
955.199788	0.998750
955.500266	1.000442
955.800706	1.000306
956.101108	1.000037
956.401472	1.000975
956.701798	1.000346
957.002087	1.000007
957.302337	0.999754
957.602550	1.000919
957.902724	1.000937
958.202861	1.000055
958.502960	1.000538
958.803022	0.998359
959.103045	0.999469
959.403031	1.000692
959.702979	0.999416
960.002889	1.000721
960.302762	0.998440
960.602596	1.000476
960.902393	0.999210
961.202153	1.001589
961.501875	1.000832
961.801559	0.998610
962.101205	1.000650
962.400814	0.999435
962.700385	1.000550
962.999918	0.999217
963.299414	0.999398
963.598873	0.998654
963.898293	0.998791
964.197677	0.998672
964.497022	0.999517
964.796331	1.001489
965.095601	0.999936
965.394835	1.000869
965.694030	1.000070
965.993189	1.000029
966.292309	1.000491
966.591393	1.000735
966.890439	1.000493
967.189447	1.000564
967.488419	0.999928
967.787353	0.999231
968.086249	0.999843
968.385108	0.999390
968.683930	0.999271
968.982714	1.000684
969.281462	1.000116
969.580172	0.999016
969.878844	1.000918
970.177480	1.000490
970.476078	1.001563
970.774639	1.000055
971.073162	1.001164
971.371649	0.999795
971.670098	0.999710
971.968510	1.000895
972.266885	0.999673
972.565223	0.998741
972.863524	0.998948
973.161788	0.999699
973.460014	1.001555
973.758204	1.000146
974.056356	0.999635
974.354471	0.998256
974.652550	0.999522
974.950591	0.999517
975.248595	1.000206
975.546563	0.999940
975.844493	1.000734
976.142386	1.000071
976.440243	1.001042
976.738062	0.999821
977.035845	1.001144
977.333590	0.999954
977.631299	1.001321
977.928971	1.000862
978.226606	0.999726
978.524204	0.998634
978.821765	1.000813
979.119290	0.999915
979.416777	1.000318
979.714228	1.000145
980.011642	0.998895
980.309020	1.000020
980.606360	0.999781
980.903664	1.001520
981.200931	0.999750
981.498162	0.998556
981.795356	0.999356
982.092513	0.998826
982.389633	1.002299
982.686717	0.998499
982.983764	0.999874
983.280775	0.999555
983.577749	0.999597
983.874686	1.000507
984.171587	0.998438
984.468451	1.001186
984.765279	1.001222
985.062070	0.999784
985.358824	0.999347
985.655543	1.000675
985.952224	0.999784
986.248869	1.000057
986.545478	0.999833
986.842050	1.001537
987.138586	0.998920
987.435086	1.000035
987.731549	1.000800
988.027975	1.001138
988.324366	1.000657
988.620719	0.999366
988.917037	0.999085
989.213318	0.999947
989.509563	1.000654
989.805772	1.000717
990.101944	1.000707
990.398080	0.999313
990.694180	0.998978
990.990244	0.999101
991.286271	1.002034
991.582262	1.000202
991.878217	1.000217
992.174136	1.000542
992.470019	1.000497
992.765865	1.000112
993.061676	1.001050
993.357450	0.999360
993.653188	0.999364
993.948890	1.000166
994.244556	1.000647
994.540186	0.999150
994.835780	0.999772
995.131337	1.000007
995.426859	0.999452
995.722345	1.000642
996.017795	1.000257
996.313208	0.999247
996.608586	1.000617
996.903928	1.000360
997.199234	0.999420
997.494504	0.999549
997.789738	0.999476
998.084936	0.998824
998.380099	1.000677
998.675225	0.999750
998.970316	1.001125
999.265371	1.000919
999.560390	1.000486
999.855373	1.000171
1000.150320	1.000253
1000.445232	1.000262
1000.740108	0.998908
1001.034948	0.999410
1001.329752	1.000939
1001.624521	0.999788
1001.919254	1.000517
1002.213951	0.999677
1002.508613	1.000203
1002.803239	1.002082
1003.097829	1.001312
1003.392384	1.000952
1003.686903	1.000518
1003.981386	1.000180
1004.275834	1.001353
1004.570246	0.998872
1004.864623	1.000060
1005.158964	1.001241
1005.453270	1.000886
1005.747540	1.000079
1006.041775	1.000802
1006.335974	0.999832
1006.630138	1.001876
1006.924266	1.000027
1007.218359	1.001760
1007.512416	1.001330
1007.806438	1.000745
1008.100425	1.001217
1008.394376	0.999591
1008.688292	1.000171
1008.982172	1.001355
1009.276017	1.000589
1009.569827	1.000255
1009.863602	0.999256
1010.157341	1.001011
1010.451045	1.000527
1010.744714	0.999464
1011.038347	1.001074
1011.331945	0.999233
1011.625508	0.999254
1011.919036	0.999858
1012.212528	1.000792
1012.505986	0.998814
1012.799408	1.000107
1013.092795	1.000760
1013.386147	1.000580
1013.679464	1.000615
1013.972745	0.999250
1014.265992	0.998769
1014.559204	0.999256
1014.852380	1.000393
1015.145521	1.000083
1015.438628	1.000805
1015.731699	0.999897
1016.024736	1.000512
1016.317737	1.000959
1016.610703	1.000096
1016.903635	1.001265
1017.196531	0.999867
1017.489393	1.000126
1017.782219	0.999061
1018.075011	1.000422
1018.367768	0.999520
1018.660490	1.000946
1018.953177	1.000946
1019.245829	1.000946
