Dividing Wavelength (nm)	Counts (n)	Blue Motor Position (mm): 0.000000	Red Motor Position (mm): 45.900000	
326.493990	1.001579
326.888308	1.001579
327.282561	1.001579
327.676750	0.998919
328.070874	0.999269
328.464933	1.000349
328.858929	0.999042
329.252859	0.998923
329.646726	0.999104
330.040528	1.000330
330.434265	0.999350
330.827938	0.999029
331.221547	1.000232
331.615091	1.000643
332.008571	1.000459
332.401986	0.999961
332.795338	0.999679
333.188625	0.997792
333.581847	1.000527
333.975006	1.000242
334.368100	0.999052
334.761129	1.000103
335.154095	1.001116
335.546996	0.999554
335.939833	0.999206
336.332606	0.999385
336.725315	0.999737
337.117960	1.000829
337.510540	0.999605
337.903056	0.999696
338.295508	0.998550
338.687896	0.999044
339.080220	0.999922
339.472480	1.000426
339.864676	0.999133
340.256807	0.998998
340.648875	0.999806
341.040879	0.999389
341.432818	0.999483
341.824694	0.999557
342.216506	1.000436
342.608253	0.999715
342.999937	0.999258
343.391557	0.999017
343.783113	0.999791
344.174605	0.999221
344.566033	1.000396
344.957397	0.998712
345.348697	0.999710
345.739934	0.998786
346.131106	0.999109
346.522215	1.000031
346.913260	0.998378
347.304241	0.999556
347.695159	0.998328
348.086012	0.998740
348.476802	0.998845
348.867528	1.000430
349.258191	0.998846
349.648789	1.000233
350.039324	1.000370
350.429796	1.000145
350.820203	1.000697
351.210548	0.999782
351.600828	0.999412
351.991045	0.999299
352.381198	0.998885
352.771288	0.999110
353.161314	1.001021
353.551276	1.001689
353.941175	0.999298
354.331010	0.998470
354.720782	1.000089
355.110490	0.998687
355.500135	1.000285
355.889717	0.999829
356.279235	0.999420
356.668689	1.000228
357.058080	0.999814
357.447408	1.000077
357.836672	0.999311
358.225873	0.999758
358.615010	1.000112
359.004084	0.999552
359.393095	1.000696
359.782043	1.000035
360.170927	1.000846
360.559748	1.000405
360.948505	0.999461
361.337199	0.999701
361.725830	0.999631
362.114398	0.999974
362.502903	1.000027
362.891344	1.000141
363.279722	0.999244
363.668037	1.000495
364.056289	0.999620
364.444478	1.000387
364.832603	0.999642
365.220665	0.999723
365.608665	0.999377
365.996601	1.000013
366.384474	1.000090
366.772284	0.999926
367.160031	0.998716
367.547715	0.999082
367.935336	0.999274
368.322893	0.999209
368.710388	1.000713
369.097820	1.000215
369.485189	1.000071
369.872495	0.999126
370.259738	0.998130
370.646918	0.999708
371.034035	1.001126
371.421090	0.999758
371.808081	0.998681
372.195010	1.000242
372.581875	1.000824
372.968678	1.000066
373.355418	1.000315
373.742096	0.999282
374.128710	1.000701
374.515262	0.998726
374.901751	0.999530
375.288177	0.999602
375.674540	0.999970
376.060841	1.000029
376.447079	1.000197
376.833254	0.999429
377.219367	0.999950
377.605417	1.000853
377.991404	1.000153
378.377329	0.999222
378.763191	0.999959
379.148991	1.000985
379.534727	1.001049
379.920402	0.999880
380.306013	1.000376
380.691563	1.001325
381.077049	1.000217
381.462474	1.000434
381.847835	1.000022
382.233134	0.999891
382.618371	1.000002
383.003545	0.999306
383.388657	0.998558
383.773706	1.000854
384.158693	1.000650
384.543618	1.000330
384.928480	1.001344
385.313280	0.999972
385.698017	1.000314
386.082692	1.000531
386.467305	1.000038
386.851856	0.999373
387.236344	1.000051
387.620770	0.999009
388.005133	1.000203
388.389435	1.001642
388.773674	0.999746
389.157851	1.001124
389.541965	1.000665
389.926018	1.000172
390.310008	1.000928
390.693936	0.999584
391.077802	0.999965
391.461606	0.999916
391.845348	1.001115
392.229027	1.001180
392.612645	1.000441
392.996200	1.001689
393.379694	0.999784
393.763125	1.001851
394.146494	1.000600
394.529801	1.000366
394.913047	1.000582
395.296230	1.001419
395.679351	1.000863
396.062410	0.999556
396.445408	1.000596
396.828343	1.001119
397.211217	1.000087
397.594028	1.000928
397.976778	1.000406
398.359466	1.000795
398.742092	0.999991
399.124656	1.000187
399.507158	1.000107
399.889598	1.000402
400.271977	1.000374
400.654294	1.001678
401.036549	1.000757
401.418742	1.001266
401.800874	1.000044
402.182944	1.000871
402.564952	1.000147
402.946898	1.002020
403.328783	1.001173
403.710606	1.000895
404.092367	1.000574
404.474067	1.000769
404.855705	1.000582
405.237282	1.001234
405.618797	1.000033
406.000250	1.000109
406.381642	1.001426
406.762972	1.000522
407.144240	1.000505
407.525447	1.000576
407.906593	1.000979
408.287677	1.000393
408.668700	1.000924
409.049661	0.999908
409.430560	1.001100
409.811399	1.000304
410.192176	0.999809
410.572891	1.000493
410.953545	1.000321
411.334138	1.000088
411.714669	1.000369
412.095139	1.000531
412.475547	1.001583
412.855894	1.000473
413.236180	1.001859
413.616405	1.001467
413.996568	1.001323
414.376670	1.000082
414.756711	0.999437
415.136691	1.000868
415.516609	1.000469
415.896466	1.000391
416.276262	0.999453
416.655997	1.001249
417.035670	1.000219
417.415283	1.001389
417.794834	1.001141
418.174324	1.000959
418.553753	1.000877
418.933121	1.000743
419.312428	1.000577
419.691674	1.000981
420.070859	1.000659
420.449983	1.001015
420.829045	0.999556
421.208047	1.001598
421.586988	1.001615
421.965867	1.000017
422.344686	1.001190
422.723444	1.000312
423.102141	1.000295
423.480777	1.000988
423.859352	1.000985
424.237866	1.000292
424.616319	1.001157
424.994712	1.001629
425.373044	1.001335
425.751314	1.000847
426.129524	1.000860
426.507673	1.000917
426.885762	1.000966
427.263789	1.000948
427.641756	1.001134
428.019662	1.001666
428.397508	1.000517
428.775292	0.999897
429.153016	1.000735
429.530679	1.000643
429.908282	1.001414
430.285824	0.999980
430.663305	1.000120
431.040726	0.999806
431.418086	1.001951
431.795385	1.001561
432.172624	1.000296
432.549802	1.001757
432.926920	1.001277
433.303977	1.000183
433.680974	1.000758
434.057910	1.000433
434.434786	1.001541
434.811601	1.000519
435.188355	1.000840
435.565050	0.999879
435.941683	1.000551
436.318257	1.001686
436.694770	1.000312
437.071222	1.000928
437.447614	1.000907
437.823946	0.999901
438.200218	1.001152
438.576429	1.000990
438.952580	1.001062
439.328670	1.000826
439.704700	1.001159
440.080670	1.001169
440.456580	1.001085
440.832429	1.000343
441.208218	1.000902
441.583947	1.000198
441.959616	1.000743
442.335224	1.000293
442.710773	1.001392
443.086261	1.000365
443.461689	1.000644
443.837057	1.000604
444.212365	1.001763
444.587612	1.000632
444.962800	1.000567
445.337927	1.000985
445.712995	1.000957
446.088002	1.001303
446.462949	1.001103
446.837837	1.001161
447.212664	1.000800
447.587431	1.000892
447.962139	1.001072
448.336786	0.999713
448.711374	1.001158
449.085901	1.000206
449.460369	1.001392
449.834776	1.000717
450.209124	1.000735
450.583412	1.001026
450.957640	1.000866
451.331808	1.000454
451.705917	1.000953
452.079965	1.000069
452.453954	1.002059
452.827883	1.000934
453.201752	1.000932
453.575562	1.001457
453.949311	1.000930
454.323001	1.000906
454.696632	1.000924
455.070202	1.000640
455.443713	0.999738
455.817164	1.000633
456.190556	1.000863
456.563888	1.000823
456.937160	1.000700
457.310373	1.000868
457.683526	1.000805
458.056619	1.000130
458.429653	1.001265
458.802628	1.000455
459.175542	0.999579
459.548398	1.000748
459.921194	1.000580
460.293930	1.001128
460.666607	1.000132
461.039224	0.999419
461.411782	1.000896
461.784280	1.000169
462.156719	1.000954
462.529099	1.001136
462.901419	1.000895
463.273680	1.000518
463.645882	1.000482
464.018024	1.000649
464.390106	1.001087
464.762130	1.001385
465.134094	1.000557
465.505999	1.000506
465.877845	1.000379
466.249631	1.001151
466.621358	1.001039
466.993026	1.000708
467.364634	1.001317
467.736184	1.001190
468.107674	1.000556
468.479105	1.000609
468.850477	1.001064
469.221790	1.001041
469.593043	1.001746
469.964238	1.001856
470.335373	1.000981
470.706449	1.001088
471.077467	1.001153
471.448425	1.000397
471.819324	1.001099
472.190164	1.000722
472.560945	1.001280
472.931667	1.000711
473.302330	1.000370
473.672934	1.001925
474.043479	1.001385
474.413965	1.000879
474.784393	1.001124
475.154761	1.000376
475.525070	1.000423
475.895321	1.000809
476.265513	1.001048
476.635645	1.000851
477.005719	1.001532
477.375734	1.000668
477.745691	1.001174
478.115588	1.001049
478.485427	1.000887
478.855207	1.000720
479.224928	1.000837
479.594591	1.001003
479.964194	1.001320
480.333739	1.001036
480.703226	1.001425
481.072653	1.001504
481.442022	1.001681
481.811333	1.000547
482.180584	1.001287
482.549777	1.000924
482.918912	1.000835
483.287988	1.001025
483.657005	1.001019
484.025964	1.001555
484.394864	1.001382
484.763706	1.001248
485.132489	1.000664
485.501213	1.001088
485.869879	1.001285
486.238487	1.001391
486.607036	1.001547
486.975527	1.000663
487.343959	1.001168
487.712333	1.000443
488.080648	1.000957
488.448905	1.001076
488.817104	1.001348
489.185244	1.001661
489.553326	1.001539
489.921350	1.001015
490.289315	1.001411
490.657222	1.001187
491.025070	1.001103
491.392861	1.001746
491.760593	1.001850
492.128267	1.001046
492.495883	1.000981
492.863440	1.001458
493.230939	1.001112
493.598380	1.001043
493.965763	1.000632
494.333088	1.001115
494.700354	1.000700
495.067563	1.000951
495.434713	1.000921
495.801805	1.001811
496.168839	1.001112
496.535815	1.000729
496.902733	1.000713
497.269593	1.000933
497.636395	1.001738
498.003139	1.000846
498.369825	1.001467
498.736453	1.000790
499.103023	1.000495
499.469535	1.000282
499.835989	1.001177
500.202385	1.001257
500.568723	1.000880
500.935003	1.000843
501.301226	1.001230
501.667390	1.000866
502.033497	1.001111
502.399546	1.001487
502.765537	1.000384
503.131470	1.000518
503.497345	1.000883
503.863163	1.002074
504.228923	1.001310
504.594625	1.002059
504.960269	1.001381
505.325856	1.001361
505.691385	1.000988
506.056856	1.000494
506.422270	1.001364
506.787625	1.001330
507.152924	1.001418
507.518164	1.000413
507.883347	1.001028
508.248472	1.000719
508.613540	1.001263
508.978550	1.001316
509.343503	1.000671
509.708398	1.000892
510.073236	1.001364
510.438016	1.001473
510.802738	1.000864
511.167403	1.000288
511.532010	1.000817
511.896561	1.001277
512.261053	1.001374
512.625488	1.000742
512.989866	1.000805
513.354186	1.001261
513.718449	1.001373
514.082655	1.001144
514.446803	1.001757
514.810894	1.001350
515.174927	1.001179
515.538904	1.001129
515.902822	1.000824
516.266684	1.001115
516.630488	1.001154
516.994235	1.000604
517.357925	1.000600
517.721558	1.001287
518.085133	1.000969
518.448651	1.001942
518.812112	1.001223
519.175516	1.001113
519.538863	1.001350
519.902152	1.000777
520.265385	1.000388
520.628560	1.000734
520.991678	1.001818
521.354739	1.001035
521.717743	1.001270
522.080690	1.001185
522.443580	1.000220
522.806413	1.001065
523.169189	1.000774
523.531908	1.000983
523.894569	1.001398
524.257174	1.001443
524.619722	1.001252
524.982213	1.001321
525.344647	1.001637
525.707025	1.001069
526.069345	1.000060
526.431608	1.001448
526.793815	1.001733
527.155964	1.001192
527.518057	1.001502
527.880093	1.001263
528.242072	1.000517
528.603995	1.000757
528.965860	1.001766
529.327669	1.000975
529.689421	1.000399
530.051117	1.001844
530.412755	1.001355
530.774337	1.001331
531.135862	1.000990
531.497331	1.001046
531.858743	1.001557
532.220098	1.001705
532.581396	1.001427
532.942638	1.001420
533.303824	1.001503
533.664953	1.000837
534.026025	1.001442
534.387040	1.001138
534.747999	1.001170
535.108902	1.001588
535.469748	1.000901
535.830537	1.000771
536.191270	1.001170
536.551947	1.000739
536.912567	1.001408
537.273131	1.001599
537.633638	1.000489
537.994089	1.000947
538.354483	1.001541
538.714821	1.001124
539.075103	1.001049
539.435328	1.000772
539.795497	1.000859
540.155609	1.000732
540.515665	1.001047
540.875665	1.001185
541.235609	1.000538
541.595496	1.001029
541.955328	0.999918
542.315102	1.001082
542.674821	1.000937
543.034483	1.000066
543.394090	1.000637
543.753640	1.001299
544.113134	1.001201
544.472571	1.000949
544.831953	1.001078
545.191278	1.001030
545.550548	1.001015
545.909761	1.000277
546.268918	1.000699
546.628019	1.001146
546.987064	1.000699
547.346053	1.000470
547.704986	1.000891
548.063863	1.000894
548.422684	1.001349
548.781449	1.000980
549.140158	1.000162
549.498811	1.001215
549.857408	1.000926
550.215949	1.000860
550.574434	1.001010
550.932864	1.001009
551.291237	1.000999
551.649555	1.000613
552.007817	1.000478
552.366022	1.000702
552.724173	1.000373
553.082267	1.001423
553.440305	1.000314
553.798288	1.000668
554.156215	1.000328
554.514086	1.000699
554.871902	1.000297
555.229661	1.000874
555.587365	1.000558
555.945014	1.001645
556.302606	1.000114
556.660143	1.000396
557.017625	1.000504
557.375050	1.000057
557.732421	1.000084
558.089735	1.000743
558.446994	1.001856
558.804197	1.001021
559.161345	1.001054
559.518437	1.001355
559.875474	1.000262
560.232455	1.000215
560.589381	1.001283
560.946251	1.000171
561.303065	1.000530
561.659825	1.000535
562.016528	1.000440
562.373177	1.000913
562.729770	0.999751
563.086307	1.001382
563.442789	1.000590
563.799216	1.000886
564.155587	1.000289
564.511904	1.000262
564.868164	0.999980
565.224370	1.000266
565.580520	1.000376
565.936615	0.999886
566.292654	0.999947
566.648638	1.000611
567.004567	0.999977
567.360441	1.000644
567.716260	1.001042
568.072023	1.000952
568.427732	1.000443
568.783385	1.000646
569.138982	1.000410
569.494525	0.999809
569.850013	1.000300
570.205445	1.000464
570.560823	1.000874
570.916145	0.999970
571.271412	1.000854
571.626625	1.000228
571.981782	0.999973
572.336884	0.999917
572.691931	1.000095
573.046923	0.999675
573.401860	1.000155
573.756743	1.000881
574.111570	1.000637
574.466342	1.000765
574.821059	1.001348
575.175722	1.000349
575.530330	1.000461
575.884882	1.000395
576.239380	1.000991
576.593823	1.000715
576.948211	1.000792
577.302544	1.000873
577.656823	1.000379
578.011047	1.000649
578.365216	1.000353
578.719330	1.000425
579.073389	1.000687
579.427394	1.000434
579.781344	1.000602
580.135239	1.000040
580.489080	1.000208
580.842866	1.000740
581.196597	1.000572
581.550273	0.999984
581.903895	1.000822
582.257463	1.000040
582.610975	1.000122
582.964434	1.000196
583.317837	1.000861
583.671186	1.000164
584.024481	1.000787
584.377721	0.999938
584.730906	1.000753
585.084037	1.000534
585.437113	1.000315
585.790135	1.000325
586.143103	0.999467
586.496016	1.001072
586.848874	1.000226
587.201679	1.000343
587.554428	1.001075
587.907124	1.000526
588.259765	1.000370
588.612352	1.001424
588.964884	1.000698
589.317362	1.000581
589.669786	1.001170
590.022155	1.000568
590.374470	1.000322
590.726731	1.000498
591.078937	0.999652
591.431090	1.000030
591.783188	1.000402
592.135232	1.000953
592.487222	1.000940
592.839157	1.000023
593.191038	1.000909
593.542866	1.000411
593.894639	1.000655
594.246358	0.999590
594.598022	1.000817
594.949633	1.000448
595.301190	1.000136
595.652692	1.001318
596.004141	1.000734
596.355535	1.000884
596.706876	0.999729
597.058162	1.000440
597.409395	1.000401
597.760573	1.000965
598.111698	0.999756
598.462768	1.000004
598.813785	0.999888
599.164748	1.000453
599.515657	1.000123
599.866511	1.000073
600.217312	0.999993
600.568060	1.000189
600.918753	1.000699
601.269392	1.000363
601.619978	0.999956
601.970510	1.000489
602.320988	1.000647
602.671412	0.999764
603.021783	1.000102
603.372100	1.000718
603.722363	1.001107
604.072572	0.999840
604.422728	1.001029
604.772830	1.000195
605.122878	0.999923
605.472872	0.999830
605.822813	0.999693
606.172701	1.000762
606.522534	1.000676
606.872314	1.000864
607.222041	1.000355
607.571714	1.000741
607.921333	0.999888
608.270899	1.000353
608.620411	1.000171
608.969870	1.000234
609.319276	1.000484
609.668627	1.001018
610.017926	0.999260
610.367171	1.000113
610.716362	0.999643
611.065500	1.000191
611.414585	0.999593
611.763616	0.999911
612.112594	0.999572
612.461518	0.999937
612.810389	0.999533
613.159207	0.999903
613.507971	0.999763
613.856682	1.000620
614.205340	1.000687
614.553945	1.000050
614.902496	0.999937
615.250994	0.999698
615.599439	1.000282
615.947830	1.000017
616.296169	1.000246
616.644454	0.999694
616.992686	1.000075
617.340864	0.999565
617.688990	1.000466
618.037063	0.999998
618.385082	0.999774
618.733048	0.999887
619.080961	1.000650
619.428821	1.000485
619.776628	1.000059
620.124382	0.999639
620.472083	0.999440
620.819731	1.000625
621.167326	0.999601
621.514868	1.000351
621.862357	1.000008
622.209793	1.001295
622.557176	0.998797
622.904506	0.999965
623.251783	0.998828
623.599007	1.000115
623.946179	1.000400
624.293297	1.000239
624.640363	1.000009
624.987376	0.999014
625.334336	1.000409
625.681243	0.999933
626.028097	1.000362
626.374899	1.000457
626.721647	1.000261
627.068343	1.000608
627.414987	1.000202
627.761577	1.000128
628.108115	1.000331
628.454600	1.000098
628.801032	0.999611
629.147412	0.999903
629.493739	1.000088
629.840014	0.999562
630.186236	1.000029
630.532405	1.000115
630.878521	0.999801
631.224585	0.999288
631.570597	0.999833
631.916556	1.000105
632.262462	1.000361
632.608316	1.000504
632.954117	0.999407
633.299866	1.000151
633.645562	0.999975
633.991206	1.000528
634.336797	1.000389
634.682336	1.000236
635.027823	1.000233
635.373257	1.000234
635.718639	1.000550
636.063968	0.999555
636.409245	0.999312
636.754470	1.000182
637.099642	1.000203
637.444762	1.000042
637.789829	0.999993
638.134845	0.999616
638.479808	0.999513
638.824719	0.999893
639.169577	0.999200
639.514383	0.999219
639.859137	0.999494
640.203839	1.000102
640.548489	1.000222
640.893086	1.000203
641.237632	1.000227
641.582125	0.998410
641.926566	0.998802
642.270955	0.999711
642.615292	0.999686
642.959576	0.999569
643.303809	0.999847
643.647990	0.999674
643.992118	1.000099
644.336195	0.999792
644.680219	0.999787
645.024192	0.998978
645.368112	0.999649
645.711981	1.000523
646.055797	0.999766
646.399562	0.999335
646.743274	0.998438
647.086935	0.999339
647.430544	0.999579
647.774101	0.999560
648.117606	1.000124
648.461059	0.999523
648.804460	0.999102
649.147810	0.999058
649.491108	1.000112
649.834354	0.999327
650.177548	1.000243
650.520690	0.999450
650.863781	0.999934
651.206820	1.000114
651.549807	1.000111
651.892742	0.999291
652.235626	0.998910
652.578458	0.999911
652.921238	0.999853
653.263967	1.000201
653.606644	1.000143
653.949269	0.999728
654.291843	0.999102
654.634365	0.998810
654.976836	1.000209
655.319255	0.999859
655.661622	1.000925
656.003938	0.998675
656.346203	0.999113
656.688416	0.999515
657.030577	0.999815
657.372687	0.998756
657.714746	0.998646
658.056753	0.999713
658.398708	0.999637
658.740612	0.999637
659.082465	0.998883
659.424266	0.999682
659.766016	0.998443
660.107715	0.998326
660.449362	0.998708
660.790958	0.999291
661.132503	0.998192
661.473996	0.998464
661.815438	0.999269
662.156829	0.998588
662.498168	0.999131
662.839456	0.998557
663.180693	1.000135
663.521879	0.998985
663.863013	0.999633
664.204097	0.999675
664.545129	0.999165
664.886110	0.999249
665.227040	0.997842
665.567918	0.998501
665.908746	0.998864
666.249522	0.998074
666.590248	0.998360
666.930922	0.998854
667.271545	0.998451
667.612118	0.998518
667.952639	0.998890
668.293109	0.998719
668.633528	0.997877
668.973896	0.999139
669.314213	0.997549
669.654480	0.998308
669.994695	0.998248
670.334859	0.997954
670.674973	0.997337
671.015035	0.998388
671.355047	0.997678
671.695008	0.998379
672.034918	0.997656
672.374777	0.997510
672.714585	0.997524
673.054342	0.997418
673.394049	0.997908
673.733705	0.996362
674.073310	0.996758
674.412864	0.997657
674.752368	0.997590
675.091820	0.998489
675.431223	0.998036
675.770574	0.996664
676.109875	0.997496
676.449125	0.996717
676.788324	0.996661
677.127473	0.998455
677.466571	0.996663
677.805619	0.996894
678.144616	0.997146
678.483562	0.996855
678.822458	0.996378
679.161303	0.998052
679.500098	0.996509
679.838842	0.997718
680.177535	0.997345
680.516179	0.997468
680.854771	0.997228
681.193314	0.997389
681.531805	0.996475
681.870247	0.995931
682.208638	0.995469
682.546978	0.995149
682.885268	0.995278
683.223508	0.995568
683.561697	0.994436
683.899836	0.995356
684.237925	0.995170
684.575963	0.994788
684.913951	0.994655
685.251889	0.994623
685.589776	0.994497
685.927614	0.994251
686.265401	0.993855
686.603137	0.993826
686.940824	0.993408
687.278460	0.992857
687.616046	0.993167
687.953582	0.992531
688.291068	0.991514
688.628504	0.993306
688.965889	0.991276
689.303224	0.991501
689.640510	0.992409
689.977745	0.992140
690.314930	0.992313
690.652065	0.993343
690.989150	0.992684
691.326185	0.992011
691.663170	0.992477
692.000105	0.992950
692.336990	0.992246
692.673825	0.992033
693.010610	0.993143
693.347345	0.991292
693.684030	0.991802
694.020665	0.991871
694.357251	0.992933
694.693786	0.992594
695.030272	0.992364
695.366707	0.992127
695.703093	0.991499
696.039429	0.991892
696.375716	0.990812
696.711952	0.990749
697.048139	0.992005
697.384276	0.991214
697.720363	0.989834
698.056400	0.990433
698.392388	0.989736
698.728326	0.990671
699.064214	0.991645
699.400053	0.991749
699.735842	0.990869
700.071581	0.990604
700.407270	0.989915
700.742910	0.990733
701.078501	0.991283
701.414042	0.990241
701.749533	0.989685
702.084974	0.990872
702.420366	0.989863
702.755709	0.989586
703.091002	0.990697
703.426246	0.989544
703.761440	0.989608
704.096584	0.990204
704.431679	0.988546
704.766725	0.989328
705.101721	0.988542
705.436668	0.988079
705.771565	0.989123
706.106413	0.989965
706.441212	0.988125
706.775961	0.987273
707.110661	0.988428
707.445311	0.987506
707.779913	0.987263
708.114465	0.987679
708.448967	0.987411
708.783421	0.985432
709.117825	0.985057
709.452180	0.986444
709.786485	0.984254
710.120742	0.983549
710.454949	0.984229
710.789107	0.984283
711.123216	0.983017
711.457275	0.983758
711.791286	0.980398
712.125247	0.980961
712.459159	0.981066
712.793023	0.982671
713.126837	0.981314
713.460602	0.980316
713.794318	0.982508
714.127985	0.979891
714.461602	0.982290
714.795171	0.982398
715.128691	0.981531
715.462162	0.981660
715.795584	0.981902
716.128957	0.981874
716.462281	0.982927
716.795556	0.983021
717.128782	0.981939
717.461960	0.982661
717.795088	0.981562
718.128167	0.983197
718.461198	0.984201
718.794180	0.982885
719.127113	0.982863
719.459997	0.983107
719.792833	0.984178
720.125619	0.983622
720.458357	0.983137
720.791046	0.983279
721.123686	0.982460
721.456278	0.983704
721.788821	0.982354
722.121315	0.982066
722.453761	0.982734
722.786158	0.981560
723.118506	0.982089
723.450805	0.982700
723.783056	0.982391
724.115259	0.980681
724.447412	0.980124
724.779518	0.982292
725.111574	0.981269
725.443582	0.980306
725.775542	0.979823
726.107453	0.979520
726.439315	0.978885
726.771129	0.977737
727.102895	0.978485
727.434612	0.976248
727.766281	0.975875
728.097901	0.976757
728.429473	0.976748
728.760996	0.974371
729.092471	0.974840
729.423897	0.975414
729.755276	0.974853
730.086606	0.974521
730.417887	0.975844
730.749120	0.975013
731.080305	0.973135
731.411442	0.972009
731.742530	0.974404
732.073570	0.972706
732.404562	0.970838
732.735506	0.971407
733.066401	0.971219
733.397249	0.971899
733.728048	0.974119
734.058798	0.973358
734.389501	0.973599
734.720156	0.974004
735.050762	0.976115
735.381320	0.974974
735.711831	0.977879
736.042293	0.976037
736.372707	0.974454
736.703073	0.973997
737.033391	0.976377
737.363661	0.975161
737.693883	0.974254
738.024056	0.973397
738.354182	0.974896
738.684260	0.972620
739.014290	0.971165
739.344272	0.971874
739.674207	0.970174
740.004093	0.970915
740.333931	0.971516
740.663722	0.969886
740.993464	0.969821
741.323159	0.969922
741.652806	0.969625
741.982405	0.971316
742.311956	0.970566
742.641460	0.970649
742.970915	0.970635
743.300323	0.972562
743.629683	0.973852
743.958996	0.973261
744.288260	0.972453
744.617477	0.973148
744.946647	0.973296
745.275768	0.972342
745.604842	0.971459
745.933869	0.973521
746.262847	0.973560
746.591778	0.970686
746.920662	0.972876
747.249498	0.974324
747.578286	0.972376
747.907027	0.970134
748.235720	0.973253
748.564365	0.971605
748.892963	0.969684
749.221514	0.969993
749.550017	0.971163
749.878473	0.969782
750.206881	0.970999
750.535242	0.972887
750.863555	0.971861
751.191821	0.971510
751.520039	0.972331
751.848210	0.973378
752.176334	0.970466
752.504411	0.969554
752.832440	0.971490
753.160421	0.973044
753.488356	0.971760
753.816243	0.969640
754.144082	0.972468
754.471875	0.973088
754.799620	0.970323
755.127318	0.971214
755.454969	0.969859
755.782572	0.969885
756.110129	0.971472
756.437638	0.972215
756.765100	0.969981
757.092515	0.969511
757.419882	0.968921
757.747203	0.969774
758.074477	0.970652
758.401703	0.969715
758.728882	0.967578
759.056014	0.968100
759.383099	0.968762
759.710138	0.970614
760.037129	0.969162
760.364073	0.967581
760.690970	0.967284
761.017820	0.970080
761.344623	0.968380
761.671379	0.966315
761.998088	0.964152
762.324751	0.961865
762.651366	0.958505
762.977935	0.950979
763.304456	0.942621
763.630931	0.938874
763.957359	0.942980
764.283740	0.951013
764.610074	0.951695
764.936362	0.953642
765.262602	0.957311
765.588796	0.959884
765.914943	0.964160
766.241044	0.967132
766.567097	0.966584
766.893104	0.966916
767.219064	0.968393
767.544978	0.967737
767.870845	0.972001
768.196665	0.971535
768.522438	0.970618
768.848165	0.970777
769.173846	0.972234
769.499479	0.972726
769.825066	0.973222
770.150607	0.974224
770.476101	0.971225
770.801548	0.969831
771.126949	0.974621
771.452303	0.972889
771.777611	0.972965
772.102872	0.972455
772.428087	0.972094
772.753256	0.973358
773.078378	0.973232
773.403453	0.976113
773.728482	0.978079
774.053465	0.973859
774.378401	0.974993
774.703291	0.976127
775.028135	0.976849
775.352932	0.977468
775.677683	0.977443
776.002388	0.976863
776.327046	0.975724
776.651658	0.976626
776.976224	0.977694
777.300743	0.977647
777.625216	0.977142
777.949643	0.976977
778.274024	0.977164
778.598359	0.978567
778.922647	0.977120
779.246889	0.977170
779.571086	0.978173
779.895236	0.978653
780.219339	0.977265
780.543397	0.977544
780.867409	0.976186
781.191374	0.976757
781.515294	0.977043
781.839167	0.977553
782.162995	0.979148
782.486776	0.976384
782.810511	0.976862
783.134201	0.977041
783.457844	0.976266
783.781441	0.977079
784.104993	0.978461
784.428498	0.978469
784.751958	0.976280
785.075372	0.978841
785.398739	0.978379
785.722061	0.979006
786.045337	0.975340
786.368568	0.978763
786.691752	0.978680
787.014891	0.974699
787.337983	0.973700
787.661030	0.974505
787.984031	0.971900
788.306987	0.966863
788.629897	0.969269
788.952760	0.967542
789.275579	0.968199
789.598351	0.969980
789.921078	0.973887
790.243759	0.973040
790.566395	0.973242
790.888984	0.974914
791.211529	0.976592
791.534027	0.976192
791.856480	0.976370
792.178888	0.978061
792.501249	0.979314
792.823566	0.977572
793.145836	0.978367
793.468062	0.979159
793.790241	0.977704
794.112375	0.977231
794.434464	0.976560
794.756507	0.977243
795.078505	0.978921
795.400457	0.977724
795.722364	0.974769
796.044226	0.972732
796.366042	0.972908
796.687812	0.974408
797.009538	0.973424
797.331218	0.971991
797.652852	0.974117
797.974442	0.974901
798.295986	0.973027
798.617484	0.974326
798.938938	0.975273
799.260346	0.976267
799.581709	0.976960
799.903026	0.976370
800.224299	0.977243
800.545526	0.978087
800.866708	0.978921
801.187845	0.979862
801.508936	0.979700
801.829983	0.978067
802.150984	0.977694
802.471940	0.979500
802.792851	0.979854
803.113717	0.980630
803.434538	0.979531
803.755314	0.979234
804.076045	0.980430
804.396731	0.978918
804.717372	0.980733
805.037967	0.981185
805.358518	0.979560
805.679024	0.980465
805.999485	0.978770
806.319901	0.980084
806.640272	0.980370
806.960598	0.979467
807.280879	0.978684
807.601115	0.978864
807.921306	0.978442
808.241453	0.977844
808.561554	0.977081
808.881611	0.977298
809.201623	0.978031
809.521590	0.978309
809.841513	0.977558
810.161390	0.978584
810.481223	0.978759
810.801011	0.979879
811.120755	0.979949
811.440453	0.979231
811.760107	0.977784
812.079716	0.977018
812.399281	0.977785
812.718801	0.980117
813.038276	0.979617
813.357707	0.979189
813.677093	0.977421
813.996434	0.979357
814.315731	0.979756
814.634983	0.979516
814.954191	0.977560
815.273354	0.978469
815.592473	0.976422
815.911547	0.976663
816.230577	0.975865
816.549562	0.976153
816.868502	0.976531
817.187399	0.975385
817.506250	0.972892
817.825058	0.973378
818.143821	0.973489
818.462539	0.970898
818.781213	0.968848
819.099843	0.966410
819.418429	0.965238
819.736970	0.961067
820.055466	0.956723
820.373919	0.949458
820.692327	0.940129
821.010691	0.934374
821.329011	0.923617
821.647286	0.909822
821.965517	0.893320
822.283704	0.888849
822.601847	0.886314
822.919945	0.883940
823.237999	0.878070
823.556010	0.882824
823.873976	0.891945
824.191897	0.899486
824.509775	0.908321
824.827609	0.919362
825.145398	0.923033
825.463144	0.925309
825.780845	0.921174
826.098502	0.919741
826.416116	0.910645
826.733685	0.905004
827.051210	0.902579
827.368692	0.901957
827.686129	0.904547
828.003522	0.915952
828.320872	0.924931
828.638177	0.937466
828.955439	0.947295
829.272656	0.953072
829.589830	0.955938
829.906960	0.960705
830.224046	0.963389
830.541088	0.966928
830.858086	0.967094
831.175041	0.969588
831.491952	0.968880
831.808819	0.967593
832.125642	0.967202
832.442421	0.961078
832.759157	0.958667
833.075849	0.947132
833.392497	0.933141
833.709101	0.921197
834.025662	0.923137
834.342179	0.927706
834.658653	0.936605
834.975083	0.945946
835.291469	0.951137
835.607811	0.957905
835.924110	0.961364
836.240366	0.966769
836.556578	0.971853
836.872746	0.973764
837.188871	0.975698
837.504952	0.976573
837.820990	0.977932
838.136984	0.979447
838.452935	0.979700
838.768842	0.981993
839.084706	0.978551
839.400526	0.970950
839.716303	0.963514
840.032037	0.958446
840.347727	0.956847
840.663373	0.960499
840.978977	0.964622
841.294537	0.972384
841.610054	0.977061
841.925527	0.978345
842.240957	0.979165
842.556344	0.981321
842.871687	0.983394
843.186987	0.985519
843.502244	0.985124
843.817458	0.985471
844.132629	0.986938
844.447756	0.987412
844.762840	0.989518
845.077881	0.988128
845.392879	0.987501
845.707833	0.988314
846.022745	0.988846
846.337613	0.989820
846.652438	0.991185
846.967221	0.989731
847.281960	0.989629
847.596656	0.990949
847.911309	0.989075
848.225919	0.989334
848.540485	0.990246
848.855009	0.990297
849.169490	0.990151
849.483928	0.990662
849.798323	0.990684
850.112675	0.991063
850.426984	0.990584
850.741251	0.990830
851.055474	0.990351
851.369654	0.990339
851.683792	0.991236
851.997887	0.990779
852.311938	0.991300
852.625947	0.990386
852.939914	0.990188
853.253837	0.989776
853.567718	0.990941
853.881555	0.990932
854.195350	0.989302
854.509103	0.990497
854.822812	0.990333
855.136479	0.990058
855.450103	0.990412
855.763685	0.989554
856.077224	0.989311
856.390720	0.990485
856.704173	0.990030
857.017584	0.989479
857.330953	0.988938
857.644278	0.990199
857.957561	0.990124
858.270802	0.989920
858.584000	0.988767
858.897155	0.989497
859.210268	0.989758
859.523339	0.989115
859.836367	0.990449
860.149352	0.990591
860.462295	0.988285
860.775195	0.989739
861.088054	0.989299
861.400869	0.988777
861.713642	0.990094
862.026373	0.989332
862.339062	0.990936
862.651708	0.988234
862.964312	0.988972
863.276873	0.990171
863.589392	0.990415
863.901869	0.988842
864.214303	0.988836
864.526696	0.989047
864.839045	0.987842
865.151353	0.986268
865.463619	0.988222
865.775842	0.986717
866.088023	0.986665
866.400162	0.987141
866.712258	0.988209
867.024313	0.987460
867.336325	0.987259
867.648296	0.987748
867.960224	0.986537
868.272110	0.985239
868.583954	0.988343
868.895755	0.986816
869.207515	0.986721
869.519233	0.985788
869.830909	0.985687
870.142542	0.986425
870.454134	0.986326
870.765684	0.986648
871.077191	0.984233
871.388657	0.986287
871.700081	0.983963
872.011463	0.985754
872.322803	0.985320
872.634101	0.984421
872.945357	0.984212
873.256571	0.983813
873.567744	0.983951
873.878874	0.983903
874.189963	0.981721
874.501010	0.982986
874.812015	0.981804
875.122979	0.982263
875.433900	0.983837
875.744780	0.983597
876.055618	0.981227
876.366415	0.981902
876.677169	0.981602
876.987882	0.982363
877.298554	0.982422
877.609183	0.979184
877.919771	0.978753
878.230317	0.977542
878.540822	0.976627
878.851285	0.973962
879.161707	0.970494
879.472087	0.966725
879.782425	0.960351
880.092722	0.947914
880.402977	0.932983
880.713191	0.922637
881.023363	0.915013
881.333494	0.911867
881.643583	0.900959
881.953631	0.894906
882.263637	0.898076
882.573602	0.905704
882.883526	0.908995
883.193408	0.913348
883.503248	0.917529
883.813048	0.924617
884.122806	0.935559
884.432522	0.943552
884.742197	0.951355
885.051831	0.952826
885.361424	0.957259
885.670975	0.962192
885.980485	0.966484
886.289954	0.968333
886.599382	0.970709
886.908768	0.972875
887.218113	0.974135
887.527417	0.976633
887.836680	0.977848
888.145901	0.977005
888.455082	0.978667
888.764221	0.979662
889.073319	0.982114
889.382376	0.980540
889.691392	0.982085
890.000366	0.979810
890.309300	0.981766
890.618193	0.982021
890.927044	0.980199
891.235855	0.980541
891.544625	0.980254
891.853353	0.980924
892.162041	0.980830
892.470687	0.977591
892.779293	0.976013
893.087858	0.976039
893.396381	0.973975
893.704864	0.967960
894.013306	0.959936
894.321707	0.951262
894.630068	0.946104
894.938387	0.943779
895.246665	0.941622
895.554903	0.944815
895.863100	0.948386
896.171256	0.954151
896.479371	0.961971
896.787446	0.967884
897.095480	0.970591
897.403473	0.971612
897.711425	0.971760
898.019336	0.976868
898.327207	0.976322
898.635038	0.977475
898.942827	0.977987
899.250576	0.979718
899.558284	0.980677
899.865952	0.981683
900.173579	0.981867
900.481165	0.982169
900.788711	0.984623
901.096216	0.984661
901.403681	0.984290
901.711105	0.985102
902.018489	0.985440
902.325832	0.984221
902.633135	0.984255
902.940397	0.982450
903.247619	0.977570
903.554800	0.967700
903.861941	0.955349
904.169041	0.945539
904.476101	0.939406
904.783121	0.936296
905.090100	0.941820
905.397039	0.947258
905.703938	0.954263
906.010796	0.962127
906.317614	0.968616
906.624391	0.972590
906.931129	0.976671
907.237826	0.980089
907.544483	0.983704
907.851099	0.984592
908.157675	0.987594
908.464211	0.987845
908.770707	0.989586
909.077163	0.990500
909.383578	0.990068
909.689954	0.990043
909.996289	0.990546
910.302584	0.991025
910.608839	0.992658
910.915054	0.991748
911.221229	0.991153
911.527363	0.990642
911.833458	0.990816
912.139513	0.990354
912.445527	0.989393
912.751502	0.988739
913.057436	0.988677
913.363331	0.987796
913.669186	0.986582
913.975000	0.983356
914.280775	0.982486
914.586510	0.979257
914.892205	0.974468
915.197859	0.968277
915.503475	0.956950
915.809050	0.950635
916.114585	0.949051
916.420081	0.948496
916.725536	0.944375
917.030952	0.946659
917.336328	0.949988
917.641665	0.956360
917.946961	0.963010
918.252218	0.967457
918.557435	0.971213
918.862612	0.974660
919.167750	0.977391
919.472848	0.978021
919.777906	0.979736
920.082925	0.982680
920.387904	0.985594
920.692843	0.985457
920.997743	0.984818
921.302603	0.986254
921.607423	0.987035
921.912204	0.988311
922.216946	0.988286
922.521647	0.989322
922.826310	0.989168
923.130932	0.991924
923.435516	0.990848
923.740059	0.992074
924.044564	0.990397
924.349028	0.991429
924.653454	0.993401
924.957840	0.994314
925.262186	0.993032
925.566493	0.992970
925.870761	0.993943
926.174989	0.993479
926.479178	0.996508
926.783328	0.995757
927.087438	0.995961
927.391509	0.995451
927.695541	0.996986
927.999533	0.995978
928.303486	0.996228
928.607400	0.998623
928.911275	0.995474
929.215110	0.997701
929.518906	0.997206
929.822663	0.996555
930.126381	0.996448
930.430060	0.996493
930.733699	0.997339
931.037299	0.996180
931.340861	0.998152
931.644383	0.996679
931.947866	0.995758
932.251309	0.997567
932.554714	0.997082
932.858080	0.997201
933.161407	0.996255
933.464694	0.997828
933.767943	0.995678
934.071153	0.997549
934.374323	0.997064
934.677455	0.996460
934.980548	0.996924
935.283602	0.997890
935.586617	0.996949
935.889593	0.995540
936.192530	0.995391
936.495428	0.996920
936.798287	0.996579
937.101108	0.996645
937.403890	0.995763
937.706632	0.996502
938.009336	0.994780
938.312002	0.994623
938.614628	0.993968
938.917216	0.994277
939.219765	0.992876
939.522275	0.993166
939.824747	0.993400
940.127179	0.993788
940.429573	0.993556
940.731929	0.992686
941.034246	0.993962
941.336524	0.993970
941.638763	0.995393
941.940964	0.994390
942.243126	0.995182
942.545250	0.995972
942.847335	0.996023
943.149381	0.996275
943.451389	0.995892
943.753359	0.995157
944.055290	0.997636
944.357182	0.996600
944.659036	0.995536
944.960851	0.996340
945.262628	0.995765
945.564367	0.997300
945.866067	0.996499
946.167729	0.996711
946.469352	0.996684
946.770937	0.995038
947.072484	0.996398
947.373992	0.996447
947.675462	0.996636
947.976893	0.995894
948.278286	0.995511
948.579641	0.997437
948.880958	0.996539
949.182236	0.997028
949.483476	0.997197
949.784678	0.995693
950.085841	0.996905
950.386967	0.996118
950.688054	0.997064
950.989103	0.995358
951.290114	0.994841
951.591087	0.996157
951.892021	0.996854
952.192917	0.996155
952.493776	0.995601
952.794596	0.995270
953.095378	0.996265
953.396122	0.995629
953.696828	0.994109
953.997496	0.996777
954.298126	0.997572
954.598718	0.996891
954.899272	0.997904
955.199788	0.996859
955.500266	0.998007
955.800706	0.997337
956.101108	0.998603
956.401472	0.998811
956.701798	0.998214
957.002087	0.997063
957.302337	0.997815
957.602550	0.999810
957.902724	0.998388
958.202861	0.997596
958.502960	0.999308
958.803022	0.997829
959.103045	0.998423
959.403031	0.999259
959.702979	0.998271
960.002889	0.998320
960.302762	0.997942
960.602596	0.998689
960.902393	0.997815
961.202153	0.999626
961.501875	0.998986
961.801559	0.998707
962.101205	0.998820
962.400814	1.000103
962.700385	0.999820
962.999918	0.999749
963.299414	0.999679
963.598873	0.997417
963.898293	0.998259
964.197677	0.998948
964.497022	0.998941
964.796331	1.000466
965.095601	0.999492
965.394835	0.998208
965.694030	0.999174
965.993189	0.999949
966.292309	0.999232
966.591393	0.999419
966.890439	0.999434
967.189447	0.998662
967.488419	1.000410
967.787353	0.998692
968.086249	0.998133
968.385108	0.998960
968.683930	0.999095
968.982714	0.999471
969.281462	0.998827
969.580172	0.998840
969.878844	0.999160
970.177480	1.000178
970.476078	1.000465
970.774639	0.999092
971.073162	1.000006
971.371649	0.999107
971.670098	0.999214
971.968510	1.000516
972.266885	0.998696
972.565223	0.999028
972.863524	0.998161
973.161788	0.998805
973.460014	1.000092
973.758204	0.998658
974.056356	0.998473
974.354471	0.997701
974.652550	0.998249
974.950591	0.998712
975.248595	0.998208
975.546563	0.998384
975.844493	1.000097
976.142386	0.999259
976.440243	0.999814
976.738062	0.998095
977.035845	1.000034
977.333590	0.998804
977.631299	1.000162
977.928971	0.999226
978.226606	1.000018
978.524204	0.997501
978.821765	1.000182
979.119290	0.999177
979.416777	0.999229
979.714228	0.999133
980.011642	0.998971
980.309020	1.000129
980.606360	0.998762
980.903664	0.999881
981.200931	0.998733
981.498162	0.996827
981.795356	0.998467
982.092513	0.997572
982.389633	0.999682
982.686717	0.996366
982.983764	0.996079
983.280775	0.995188
983.577749	0.996307
983.874686	0.997279
984.171587	0.995845
984.468451	0.998853
984.765279	0.998181
985.062070	0.997113
985.358824	0.998018
985.655543	0.997567
985.952224	0.998389
986.248869	0.999432
986.545478	0.998587
986.842050	1.000958
987.138586	0.997838
987.435086	0.999131
987.731549	0.999877
988.027975	0.999848
988.324366	0.998442
988.620719	0.998433
988.917037	0.998208
989.213318	0.999240
989.509563	1.001689
989.805772	0.999633
990.101944	1.000427
990.398080	0.999685
990.694180	1.000335
990.990244	0.999429
991.286271	0.999762
991.582262	1.000046
991.878217	0.998977
992.174136	1.000495
992.470019	0.999990
992.765865	0.999623
993.061676	0.999910
993.357450	0.999488
993.653188	0.997591
993.948890	0.998892
994.244556	0.999351
994.540186	0.999019
994.835780	0.998251
995.131337	0.999725
995.426859	0.998705
995.722345	1.000434
996.017795	0.998650
996.313208	0.998805
996.608586	0.998700
996.903928	0.999232
997.199234	0.998138
997.494504	0.999906
997.789738	0.999284
998.084936	0.996704
998.380099	0.999364
998.675225	0.998953
998.970316	0.999867
999.265371	1.000418
999.560390	0.999035
999.855373	1.001056
1000.150320	0.999101
1000.445232	0.999747
1000.740108	0.999158
1001.034948	0.999588
1001.329752	1.001119
1001.624521	0.999697
1001.919254	0.999637
1002.213951	0.999471
1002.508613	0.998895
1002.803239	1.000615
1003.097829	1.001909
1003.392384	1.000488
1003.686903	0.999316
1003.981386	0.999858
1004.275834	1.000237
1004.570246	0.999598
1004.864623	0.999490
1005.158964	1.000786
1005.453270	0.999823
1005.747540	0.998769
1006.041775	1.000037
1006.335974	0.999420
1006.630138	0.999995
1006.924266	1.000368
1007.218359	1.000230
1007.512416	1.000892
1007.806438	0.999024
1008.100425	1.000913
1008.394376	0.999478
1008.688292	1.000385
1008.982172	1.001586
1009.276017	1.000410
1009.569827	0.998418
1009.863602	0.999034
1010.157341	1.000618
1010.451045	0.999327
1010.744714	1.000405
1011.038347	1.000093
1011.331945	0.999680
1011.625508	0.999108
1011.919036	0.999446
1012.212528	0.998193
1012.505986	0.998294
1012.799408	1.000072
1013.092795	1.000295
1013.386147	1.000435
1013.679464	0.999384
1013.972745	0.999637
1014.265992	0.998280
1014.559204	0.999904
1014.852380	1.000390
1015.145521	0.999265
1015.438628	0.999659
1015.731699	1.000222
1016.024736	0.999790
1016.317737	1.000018
1016.610703	1.000037
1016.903635	1.000364
1017.196531	1.000068
1017.489393	1.001199
1017.782219	1.000415
1018.075011	0.998811
1018.367768	0.999816
1018.660490	0.999699
1018.953177	0.999699
1019.245829	0.999699
