Dividing Wavelength (nm)	Counts (n)	Blue Motor Position (mm): 0.000000	Red Motor Position (mm): 45.500000	
326.493990	1.000836
326.888308	1.000836
327.282561	1.000836
327.676750	0.999922
328.070874	0.999706
328.464933	1.000735
328.858929	0.999068
329.252859	1.001202
329.646726	0.999973
330.040528	1.001260
330.434265	1.000248
330.827938	1.001244
331.221547	1.001608
331.615091	1.000735
332.008571	1.000284
332.401986	1.000084
332.795338	1.001053
333.188625	0.999982
333.581847	1.000675
333.975006	0.999538
334.368100	0.999953
334.761129	0.999519
335.154095	1.001654
335.546996	1.000907
335.939833	0.998028
336.332606	0.999659
336.725315	1.001012
337.117960	1.002441
337.510540	1.000154
337.903056	1.000435
338.295508	0.999020
338.687896	0.999911
339.080220	0.999972
339.472480	0.998566
339.864676	0.999331
340.256807	0.999540
340.648875	1.001597
341.040879	0.999767
341.432818	1.000278
341.824694	0.999728
342.216506	1.001361
342.608253	0.999995
342.999937	0.999195
343.391557	0.999730
343.783113	1.000758
344.174605	1.000270
344.566033	1.000147
344.957397	0.999587
345.348697	0.998627
345.739934	1.000214
346.131106	0.999172
346.522215	0.999040
346.913260	1.000300
347.304241	1.001084
347.695159	0.998860
348.086012	0.998114
348.476802	0.999465
348.867528	1.000348
349.258191	0.999216
349.648789	0.999922
350.039324	1.000098
350.429796	1.001402
350.820203	1.000973
351.210548	0.998937
351.600828	1.000106
351.991045	1.000049
352.381198	0.999345
352.771288	1.000326
353.161314	0.999679
353.551276	1.000267
353.941175	1.000165
354.331010	0.999787
354.720782	1.000702
355.110490	0.999726
355.500135	1.001013
355.889717	0.999053
356.279235	1.000251
356.668689	0.999549
357.058080	0.999521
357.447408	1.000863
357.836672	1.001892
358.225873	1.000391
358.615010	1.001604
359.004084	1.000887
359.393095	0.999742
359.782043	0.999586
360.170927	1.001537
360.559748	0.999931
360.948505	0.999369
361.337199	1.000988
361.725830	1.001225
362.114398	0.999735
362.502903	1.000701
362.891344	1.000132
363.279722	0.999933
363.668037	1.001116
364.056289	1.000141
364.444478	1.002137
364.832603	1.000175
365.220665	0.999687
365.608665	1.000063
365.996601	1.000774
366.384474	1.000306
366.772284	1.000634
367.160031	0.999140
367.547715	0.998773
367.935336	0.999043
368.322893	0.999832
368.710388	1.000246
369.097820	1.000135
369.485189	1.000425
369.872495	0.998886
370.259738	0.997485
370.646918	1.001137
371.034035	1.000378
371.421090	0.999301
371.808081	0.999889
372.195010	0.999457
372.581875	1.000361
372.968678	1.000362
373.355418	0.999733
373.742096	0.999574
374.128710	1.001181
374.515262	0.999464
374.901751	1.000141
375.288177	1.000687
375.674540	1.000586
376.060841	0.999205
376.447079	0.999695
376.833254	0.999691
377.219367	0.999957
377.605417	1.000945
377.991404	1.001666
378.377329	0.999656
378.763191	0.998618
379.148991	1.000841
379.534727	1.000253
379.920402	0.999645
380.306013	0.999818
380.691563	1.001010
381.077049	0.999684
381.462474	0.999980
381.847835	0.999951
382.233134	0.999845
382.618371	1.000145
383.003545	0.999798
383.388657	1.000208
383.773706	1.000564
384.158693	1.000523
384.543618	1.000288
384.928480	1.001333
385.313280	1.000438
385.698017	1.000277
386.082692	1.001336
386.467305	1.000974
386.851856	1.000200
387.236344	0.999696
387.620770	0.999459
388.005133	1.000234
388.389435	1.001032
388.773674	1.001297
389.157851	1.001239
389.541965	1.000656
389.926018	1.000954
390.310008	1.000932
390.693936	1.000104
391.077802	1.000187
391.461606	1.000157
391.845348	1.001081
392.229027	1.001975
392.612645	1.000243
392.996200	1.000993
393.379694	1.000733
393.763125	1.001264
394.146494	1.000583
394.529801	0.999606
394.913047	1.000030
395.296230	1.000697
395.679351	1.000959
396.062410	1.000336
396.445408	1.000574
396.828343	1.000135
397.211217	1.000057
397.594028	1.002171
397.976778	1.000251
398.359466	1.000139
398.742092	1.000391
399.124656	0.999950
399.507158	1.001088
399.889598	1.000231
400.271977	1.000661
400.654294	1.000963
401.036549	1.001262
401.418742	1.001900
401.800874	1.000219
402.182944	0.999937
402.564952	1.000576
402.946898	1.000774
403.328783	1.001273
403.710606	1.000782
404.092367	1.000461
404.474067	1.000775
404.855705	1.001425
405.237282	1.000586
405.618797	1.000343
406.000250	1.000896
406.381642	1.001251
406.762972	1.000364
407.144240	1.001936
407.525447	1.001452
407.906593	1.000908
408.287677	1.000118
408.668700	1.001075
409.049661	0.999338
409.430560	1.001364
409.811399	1.001543
410.192176	0.999678
410.572891	1.000627
410.953545	1.000790
411.334138	0.999324
411.714669	1.000589
412.095139	1.000690
412.475547	1.001660
412.855894	1.000807
413.236180	1.001897
413.616405	1.001403
413.996568	1.001194
414.376670	1.000729
414.756711	1.000571
415.136691	1.001497
415.516609	1.000649
415.896466	1.000255
416.276262	0.999580
416.655997	1.000863
417.035670	1.000645
417.415283	1.000663
417.794834	1.001153
418.174324	1.000347
418.553753	1.000849
418.933121	1.000543
419.312428	1.000195
419.691674	1.001146
420.070859	1.000988
420.449983	1.000812
420.829045	1.001215
421.208047	1.001381
421.586988	1.001687
421.965867	1.001452
422.344686	1.001430
422.723444	1.001163
423.102141	1.001193
423.480777	1.000658
423.859352	1.001136
424.237866	1.000358
424.616319	1.000596
424.994712	1.000987
425.373044	1.001919
425.751314	1.001153
426.129524	1.000661
426.507673	1.001027
426.885762	1.001711
427.263789	1.001607
427.641756	1.001338
428.019662	1.001928
428.397508	1.001257
428.775292	1.000389
429.153016	1.001251
429.530679	1.000862
429.908282	1.000497
430.285824	1.000145
430.663305	1.000770
431.040726	1.000478
431.418086	1.002342
431.795385	1.001424
432.172624	1.000833
432.549802	1.001078
432.926920	1.000040
433.303977	1.000591
433.680974	1.001186
434.057910	1.001002
434.434786	1.001051
434.811601	1.000388
435.188355	1.001143
435.565050	1.000120
435.941683	1.000917
436.318257	1.001616
436.694770	1.000934
437.071222	1.001761
437.447614	1.001731
437.823946	1.001430
438.200218	1.000701
438.576429	1.000735
438.952580	1.002109
439.328670	1.000683
439.704700	1.000975
440.080670	1.001621
440.456580	1.000656
440.832429	1.000829
441.208218	1.001181
441.583947	1.001459
441.959616	1.001084
442.335224	1.001260
442.710773	1.002056
443.086261	1.000396
443.461689	1.001275
443.837057	1.001361
444.212365	1.001205
444.587612	1.000833
444.962800	1.001107
445.337927	1.001334
445.712995	1.000993
446.088002	1.001536
446.462949	1.001048
446.837837	1.001201
447.212664	1.001141
447.587431	1.000829
447.962139	1.001080
448.336786	1.000978
448.711374	1.001550
449.085901	1.000854
449.460369	1.001222
449.834776	1.000862
450.209124	1.000719
450.583412	1.001412
450.957640	1.000894
451.331808	1.000851
451.705917	1.001209
452.079965	1.000126
452.453954	1.000833
452.827883	1.000553
453.201752	1.001640
453.575562	1.001649
453.949311	1.001124
454.323001	1.001691
454.696632	1.000705
455.070202	1.001323
455.443713	1.000790
455.817164	1.001728
456.190556	1.001563
456.563888	1.000538
456.937160	1.001152
457.310373	1.001070
457.683526	1.001740
458.056619	1.000741
458.429653	1.000962
458.802628	1.000901
459.175542	1.001659
459.548398	1.000837
459.921194	1.000483
460.293930	1.000755
460.666607	1.000742
461.039224	0.999171
461.411782	1.000718
461.784280	1.000711
462.156719	1.002172
462.529099	1.001134
462.901419	1.001687
463.273680	1.001670
463.645882	1.001519
464.018024	1.001339
464.390106	1.001086
464.762130	1.001565
465.134094	1.000934
465.505999	1.001291
465.877845	1.000973
466.249631	1.001558
466.621358	1.000957
466.993026	1.001483
467.364634	1.001268
467.736184	1.001609
468.107674	1.001359
468.479105	1.000607
468.850477	1.001667
469.221790	1.001586
469.593043	1.002156
469.964238	1.001926
470.335373	1.000792
470.706449	1.001164
471.077467	1.001793
471.448425	1.001153
471.819324	1.001452
472.190164	1.000758
472.560945	1.001326
472.931667	1.000859
473.302330	1.001014
473.672934	1.001423
474.043479	1.001484
474.413965	1.001368
474.784393	1.002175
475.154761	1.000850
475.525070	1.000626
475.895321	1.001490
476.265513	1.000958
476.635645	1.001016
477.005719	1.001337
477.375734	1.001133
477.745691	1.001940
478.115588	1.001308
478.485427	1.001110
478.855207	1.001104
479.224928	1.001056
479.594591	1.001177
479.964194	1.001617
480.333739	1.001337
480.703226	1.001281
481.072653	1.001574
481.442022	1.001923
481.811333	1.000606
482.180584	1.001748
482.549777	1.000840
482.918912	1.001125
483.287988	1.001810
483.657005	1.001104
484.025964	1.001586
484.394864	1.001628
484.763706	1.001563
485.132489	1.001870
485.501213	1.001333
485.869879	1.001185
486.238487	1.001739
486.607036	1.001364
486.975527	1.001606
487.343959	1.000958
487.712333	1.000601
488.080648	1.001580
488.448905	1.001765
488.817104	1.001963
489.185244	1.001587
489.553326	1.001883
489.921350	1.001151
490.289315	1.001617
490.657222	1.001550
491.025070	1.001115
491.392861	1.001918
491.760593	1.001975
492.128267	1.001757
492.495883	1.001561
492.863440	1.002277
493.230939	1.002604
493.598380	1.001293
493.965763	1.001309
494.333088	1.001564
494.700354	1.001197
495.067563	1.002040
495.434713	1.001064
495.801805	1.002325
496.168839	1.002114
496.535815	1.000947
496.902733	1.001287
497.269593	1.001531
497.636395	1.001527
498.003139	1.001675
498.369825	1.001940
498.736453	1.001848
499.103023	1.000487
499.469535	1.000972
499.835989	1.001088
500.202385	1.001488
500.568723	1.001337
500.935003	1.002159
501.301226	1.001567
501.667390	1.001301
502.033497	1.001108
502.399546	1.002595
502.765537	1.000764
503.131470	1.001035
503.497345	1.001090
503.863163	1.002043
504.228923	1.001586
504.594625	1.001842
504.960269	1.001712
505.325856	1.001713
505.691385	1.001180
506.056856	1.001492
506.422270	1.001723
506.787625	1.001872
507.152924	1.001597
507.518164	1.001363
507.883347	1.001561
508.248472	1.001125
508.613540	1.001511
508.978550	1.001568
509.343503	1.001132
509.708398	1.000819
510.073236	1.000969
510.438016	1.002485
510.802738	1.001604
511.167403	1.001618
511.532010	1.001228
511.896561	1.001081
512.261053	1.002126
512.625488	1.001180
512.989866	1.001833
513.354186	1.001103
513.718449	1.001520
514.082655	1.001416
514.446803	1.001450
514.810894	1.001616
515.174927	1.001452
515.538904	1.000938
515.902822	1.001190
516.266684	1.002083
516.630488	1.002036
516.994235	1.001114
517.357925	1.001234
517.721558	1.001538
518.085133	1.000674
518.448651	1.001861
518.812112	1.001655
519.175516	1.001146
519.538863	1.001792
519.902152	1.000891
520.265385	1.001013
520.628560	1.001667
520.991678	1.001412
521.354739	1.001796
521.717743	1.001342
522.080690	1.001309
522.443580	1.001177
522.806413	1.001653
523.169189	1.001517
523.531908	1.001463
523.894569	1.001652
524.257174	1.001538
524.619722	1.001529
524.982213	1.001499
525.344647	1.001041
525.707025	1.001190
526.069345	1.000782
526.431608	1.001317
526.793815	1.001615
527.155964	1.000899
527.518057	1.001838
527.880093	1.001336
528.242072	1.001654
528.603995	1.001188
528.965860	1.002120
529.327669	1.001240
529.689421	1.001071
530.051117	1.001418
530.412755	1.001357
530.774337	1.001396
531.135862	1.001091
531.497331	1.001171
531.858743	1.001433
532.220098	1.001872
532.581396	1.001754
532.942638	1.001894
533.303824	1.001187
533.664953	1.001267
534.026025	1.001354
534.387040	1.001199
534.747999	1.001136
535.108902	1.002149
535.469748	1.001224
535.830537	1.000980
536.191270	1.001352
536.551947	1.000742
536.912567	1.001242
537.273131	1.001812
537.633638	1.000854
537.994089	1.001314
538.354483	1.001504
538.714821	1.001282
539.075103	1.000691
539.435328	1.001153
539.795497	1.000775
540.155609	1.000663
540.515665	1.001139
540.875665	1.001226
541.235609	1.001596
541.595496	1.000719
541.955328	1.000982
542.315102	1.000806
542.674821	1.001053
543.034483	1.000670
543.394090	1.000504
543.753640	1.001122
544.113134	1.002025
544.472571	1.001247
544.831953	1.001016
545.191278	1.000910
545.550548	1.000982
545.909761	1.000977
546.268918	1.001107
546.628019	1.001259
546.987064	1.000396
547.346053	1.001555
547.704986	1.001424
548.063863	1.001621
548.422684	1.001295
548.781449	1.001261
549.140158	1.001019
549.498811	1.001352
549.857408	1.001871
550.215949	1.001845
550.574434	1.000651
550.932864	1.000900
551.291237	1.001719
551.649555	1.001255
552.007817	1.000941
552.366022	1.000799
552.724173	1.001245
553.082267	1.001370
553.440305	1.000409
553.798288	1.001155
554.156215	1.000414
554.514086	1.002019
554.871902	1.000814
555.229661	1.000080
555.587365	1.000880
555.945014	1.002209
556.302606	1.000456
556.660143	1.000876
557.017625	1.001153
557.375050	1.000890
557.732421	1.001264
558.089735	1.001004
558.446994	1.001944
558.804197	1.001251
559.161345	1.001445
559.518437	1.002112
559.875474	1.000963
560.232455	1.000557
560.589381	1.001259
560.946251	1.000510
561.303065	1.000900
561.659825	1.000860
562.016528	1.000819
562.373177	1.001382
562.729770	1.000726
563.086307	1.001254
563.442789	1.001178
563.799216	1.001066
564.155587	1.000410
564.511904	1.000800
564.868164	1.000134
565.224370	1.000813
565.580520	1.001142
565.936615	1.000685
566.292654	1.000569
566.648638	1.000982
567.004567	1.000309
567.360441	1.001136
567.716260	1.001126
568.072023	1.001272
568.427732	1.001139
568.783385	1.000871
569.138982	1.001053
569.494525	1.000961
569.850013	1.000766
570.205445	1.000741
570.560823	1.000988
570.916145	1.000607
571.271412	1.001025
571.626625	1.001064
571.981782	1.000784
572.336884	1.001106
572.691931	1.000629
573.046923	1.000816
573.401860	1.000496
573.756743	1.000853
574.111570	1.000883
574.466342	1.001440
574.821059	1.001126
575.175722	1.000350
575.530330	1.001539
575.884882	1.001026
576.239380	1.001945
576.593823	1.000783
576.948211	1.000571
577.302544	1.001358
577.656823	1.000542
578.011047	1.001162
578.365216	1.000366
578.719330	1.000878
579.073389	1.001805
579.427394	1.000682
579.781344	1.000870
580.135239	1.000807
580.489080	1.001217
580.842866	1.001164
581.196597	1.000297
581.550273	1.000524
581.903895	1.001563
582.257463	1.000548
582.610975	1.000693
582.964434	1.000796
583.317837	1.001916
583.671186	1.001140
584.024481	1.000857
584.377721	1.000889
584.730906	1.001762
585.084037	1.000869
585.437113	1.001142
585.790135	1.000560
586.143103	1.000434
586.496016	1.001775
586.848874	1.001354
587.201679	1.000250
587.554428	1.001855
587.907124	1.000822
588.259765	1.001044
588.612352	1.001306
588.964884	1.000776
589.317362	1.000994
589.669786	1.000887
590.022155	1.001129
590.374470	1.000782
590.726731	1.001369
591.078937	1.000035
591.431090	1.000885
591.783188	1.001374
592.135232	1.000942
592.487222	1.000639
592.839157	1.000410
593.191038	1.001256
593.542866	1.000762
593.894639	1.001586
594.246358	1.000135
594.598022	1.000774
594.949633	1.001082
595.301190	1.000752
595.652692	1.001079
596.004141	1.001871
596.355535	1.000656
596.706876	1.000506
597.058162	1.000653
597.409395	1.001556
597.760573	1.001093
598.111698	1.000914
598.462768	1.000795
598.813785	0.999916
599.164748	1.001230
599.515657	1.000021
599.866511	1.000336
600.217312	1.000737
600.568060	1.001454
600.918753	1.000764
601.269392	1.000840
601.619978	1.001080
601.970510	1.000984
602.320988	1.000651
602.671412	1.000792
603.021783	1.001321
603.372100	1.001739
603.722363	1.001678
604.072572	1.001039
604.422728	1.001154
604.772830	1.000514
605.122878	1.000775
605.472872	1.000966
605.822813	1.000553
606.172701	1.000116
606.522534	1.001726
606.872314	1.000645
607.222041	1.000622
607.571714	1.001389
607.921333	1.000144
608.270899	1.001273
608.620411	1.001262
608.969870	1.000981
609.319276	1.000739
609.668627	1.000695
610.017926	1.000540
610.367171	1.001124
610.716362	1.000960
611.065500	1.000824
611.414585	1.000580
611.763616	1.001299
612.112594	1.000970
612.461518	1.000665
612.810389	1.001233
613.159207	1.000506
613.507971	1.000635
613.856682	1.000696
614.205340	1.001550
614.553945	0.999950
614.902496	1.000666
615.250994	1.001007
615.599439	1.000959
615.947830	1.000726
616.296169	1.001252
616.644454	0.999858
616.992686	1.001061
617.340864	0.999952
617.688990	1.001029
618.037063	1.001021
618.385082	1.000245
618.733048	1.000318
619.080961	1.001194
619.428821	1.000673
619.776628	1.000171
620.124382	1.000411
620.472083	1.000064
620.819731	1.000799
621.167326	1.000640
621.514868	1.000706
621.862357	1.000026
622.209793	1.000750
622.557176	0.999004
622.904506	1.000814
623.251783	1.000019
623.599007	1.000796
623.946179	1.001123
624.293297	1.000450
624.640363	1.000310
624.987376	0.999780
625.334336	1.000871
625.681243	1.000472
626.028097	1.001224
626.374899	1.000356
626.721647	1.001342
627.068343	1.001103
627.414987	1.000380
627.761577	0.999596
628.108115	1.000203
628.454600	1.001615
628.801032	1.000915
629.147412	1.001891
629.493739	1.000037
629.840014	1.000101
630.186236	1.000762
630.532405	1.000377
630.878521	1.000482
631.224585	1.000479
631.570597	1.000671
631.916556	1.000687
632.262462	1.000585
632.608316	1.000528
632.954117	1.000001
633.299866	1.000226
633.645562	1.000273
633.991206	1.000705
634.336797	1.001175
634.682336	1.000787
635.027823	1.000536
635.373257	1.000506
635.718639	1.000611
636.063968	1.000515
636.409245	1.000370
636.754470	1.000509
637.099642	1.001267
637.444762	1.000635
637.789829	1.000656
638.134845	1.000376
638.479808	1.000261
638.824719	1.000177
639.169577	0.999980
639.514383	1.000336
639.859137	1.000198
640.203839	1.001122
640.548489	0.999142
640.893086	1.000059
641.237632	1.000784
641.582125	0.999117
641.926566	0.999480
642.270955	1.000585
642.615292	1.000012
642.959576	1.000458
643.303809	1.000864
643.647990	1.000539
643.992118	1.000769
644.336195	1.001377
644.680219	1.000455
645.024192	1.001036
645.368112	0.999576
645.711981	0.999755
646.055797	1.000085
646.399562	0.999847
646.743274	0.998088
647.086935	0.999380
647.430544	0.999111
647.774101	0.999949
648.117606	0.999480
648.461059	0.999023
648.804460	0.999331
649.147810	0.999426
649.491108	1.000270
649.834354	0.999274
650.177548	1.000201
650.520690	0.999830
650.863781	0.999692
651.206820	0.999531
651.549807	1.000169
651.892742	0.999668
652.235626	1.000233
652.578458	0.999826
652.921238	0.998575
653.263967	1.000186
653.606644	0.999574
653.949269	0.999738
654.291843	0.999689
654.634365	0.998225
654.976836	0.999236
655.319255	1.000149
655.661622	1.000419
656.003938	0.998782
656.346203	0.999872
656.688416	1.000698
657.030577	1.000097
657.372687	0.998506
657.714746	0.999194
658.056753	0.999754
658.398708	0.999655
658.740612	0.999464
659.082465	0.998825
659.424266	0.999059
659.766016	0.997875
660.107715	0.998210
660.449362	0.997868
660.790958	0.998392
661.132503	0.997313
661.473996	0.998467
661.815438	0.998477
662.156829	0.998312
662.498168	0.997948
662.839456	0.997853
663.180693	0.998559
663.521879	0.998852
663.863013	0.998916
664.204097	0.998755
664.545129	0.997701
664.886110	0.997923
665.227040	0.997657
665.567918	0.997723
665.908746	0.998252
666.249522	0.996749
666.590248	0.997366
666.930922	0.998924
667.271545	0.996710
667.612118	0.997257
667.952639	0.997281
668.293109	0.996885
668.633528	0.997010
668.973896	0.997962
669.314213	0.997206
669.654480	0.997651
669.994695	0.996531
670.334859	0.997175
670.674973	0.995937
671.015035	0.996214
671.355047	0.996467
671.695008	0.995923
672.034918	0.995658
672.374777	0.995417
672.714585	0.995917
673.054342	0.996620
673.394049	0.995623
673.733705	0.995374
674.073310	0.995062
674.412864	0.995042
674.752368	0.994502
675.091820	0.995989
675.431223	0.995633
675.770574	0.994917
676.109875	0.995521
676.449125	0.994737
676.788324	0.993975
677.127473	0.995005
677.466571	0.993954
677.805619	0.993921
678.144616	0.994292
678.483562	0.993843
678.822458	0.993264
679.161303	0.995088
679.500098	0.993000
679.838842	0.994694
680.177535	0.994288
680.516179	0.993748
680.854771	0.993738
681.193314	0.992731
681.531805	0.992712
681.870247	0.990541
682.208638	0.991005
682.546978	0.990819
682.885268	0.991044
683.223508	0.990498
683.561697	0.990185
683.899836	0.991214
684.237925	0.990676
684.575963	0.989984
684.913951	0.991090
685.251889	0.989687
685.589776	0.988538
685.927614	0.990014
686.265401	0.988440
686.603137	0.989048
686.940824	0.987505
687.278460	0.987168
687.616046	0.987093
687.953582	0.985870
688.291068	0.986131
688.628504	0.985204
688.965889	0.984853
689.303224	0.984477
689.640510	0.985258
689.977745	0.985079
690.314930	0.986119
690.652065	0.985759
690.989150	0.985717
691.326185	0.985624
691.663170	0.985845
692.000105	0.986349
692.336990	0.986017
692.673825	0.985582
693.010610	0.986521
693.347345	0.984914
693.684030	0.985717
694.020665	0.986073
694.357251	0.986248
694.693786	0.986420
695.030272	0.986736
695.366707	0.984880
695.703093	0.984402
696.039429	0.984406
696.375716	0.983222
696.711952	0.983939
697.048139	0.985217
697.384276	0.983706
697.720363	0.983198
698.056400	0.982277
698.392388	0.982273
698.728326	0.983313
699.064214	0.984615
699.400053	0.984042
699.735842	0.982575
700.071581	0.983262
700.407270	0.981981
700.742910	0.982651
701.078501	0.982920
701.414042	0.982825
701.749533	0.981338
702.084974	0.982880
702.420366	0.981303
702.755709	0.981819
703.091002	0.982442
703.426246	0.980769
703.761440	0.982384
704.096584	0.982538
704.431679	0.980488
704.766725	0.980384
705.101721	0.979965
705.436668	0.979830
705.771565	0.980439
706.106413	0.980580
706.441212	0.978493
706.775961	0.977315
707.110661	0.979114
707.445311	0.979564
707.779913	0.978102
708.114465	0.978303
708.448967	0.977373
708.783421	0.975716
709.117825	0.974346
709.452180	0.975966
709.786485	0.974083
710.120742	0.973543
710.454949	0.973329
710.789107	0.972973
711.123216	0.970776
711.457275	0.971221
711.791286	0.968732
712.125247	0.968358
712.459159	0.970265
712.793023	0.970785
713.126837	0.967803
713.460602	0.967047
713.794318	0.970601
714.127985	0.969107
714.461602	0.969459
714.795171	0.969310
715.128691	0.969477
715.462162	0.969987
715.795584	0.969771
716.128957	0.969275
716.462281	0.971891
716.795556	0.971210
717.128782	0.970752
717.461960	0.970650
717.795088	0.969389
718.128167	0.970170
718.461198	0.972508
718.794180	0.972421
719.127113	0.970414
719.459997	0.971961
719.792833	0.971771
720.125619	0.972446
720.458357	0.972000
720.791046	0.970872
721.123686	0.970813
721.456278	0.971884
721.788821	0.969866
722.121315	0.970255
722.453761	0.971866
722.786158	0.970162
723.118506	0.969755
723.450805	0.971389
723.783056	0.970153
724.115259	0.968154
724.447412	0.968440
724.779518	0.969984
725.111574	0.967878
725.443582	0.967920
725.775542	0.967047
726.107453	0.966238
726.439315	0.964452
726.771129	0.965157
727.102895	0.964290
727.434612	0.961785
727.766281	0.962364
728.097901	0.962523
728.429473	0.963072
728.760996	0.960732
729.092471	0.962071
729.423897	0.961019
729.755276	0.961043
730.086606	0.960881
730.417887	0.959913
730.749120	0.958814
731.080305	0.955418
731.411442	0.955579
731.742530	0.958604
732.073570	0.956131
732.404562	0.953493
732.735506	0.954351
733.066401	0.955175
733.397249	0.955949
733.728048	0.957880
734.058798	0.957627
734.389501	0.957281
734.720156	0.960210
735.050762	0.961077
735.381320	0.958929
735.711831	0.963002
736.042293	0.961603
736.372707	0.959006
736.703073	0.959893
737.033391	0.963034
737.363661	0.961253
737.693883	0.958780
738.024056	0.958810
738.354182	0.960643
738.684260	0.957144
739.014290	0.956172
739.344272	0.956965
739.674207	0.955615
740.004093	0.955534
740.333931	0.955982
740.663722	0.953613
740.993464	0.955107
741.323159	0.954766
741.652806	0.954161
741.982405	0.955662
742.311956	0.954410
742.641460	0.955898
742.970915	0.955630
743.300323	0.956219
743.629683	0.958462
743.958996	0.957874
744.288260	0.957455
744.617477	0.958561
744.946647	0.958521
745.275768	0.958406
745.604842	0.956131
745.933869	0.960448
746.262847	0.959291
746.591778	0.955636
746.920662	0.958018
747.249498	0.960433
747.578286	0.957374
747.907027	0.955593
748.235720	0.959699
748.564365	0.955517
748.892963	0.953705
749.221514	0.954689
749.550017	0.956619
749.878473	0.955068
750.206881	0.957218
750.535242	0.956848
750.863555	0.956768
751.191821	0.956953
751.520039	0.956811
751.848210	0.958927
752.176334	0.955285
752.504411	0.954973
752.832440	0.956068
753.160421	0.958668
753.488356	0.956456
753.816243	0.954205
754.144082	0.957335
754.471875	0.959250
754.799620	0.956258
755.127318	0.957226
755.454969	0.955527
755.782572	0.955037
756.110129	0.957073
756.437638	0.958454
756.765100	0.954709
757.092515	0.954118
757.419882	0.954108
757.747203	0.955472
758.074477	0.956253
758.401703	0.954203
758.728882	0.953336
759.056014	0.952058
759.383099	0.952463
759.710138	0.955051
760.037129	0.953659
760.364073	0.950149
760.690970	0.949956
761.017820	0.953291
761.344623	0.952203
761.671379	0.948642
761.998088	0.945973
762.324751	0.941561
762.651366	0.936637
762.977935	0.925994
763.304456	0.914259
763.630931	0.908235
763.957359	0.916037
764.283740	0.925392
764.610074	0.927331
764.936362	0.930797
765.262602	0.937503
765.588796	0.939792
765.914943	0.945516
766.241044	0.949707
766.567097	0.950296
766.893104	0.951655
767.219064	0.951989
767.544978	0.953286
767.870845	0.957844
768.196665	0.958753
768.522438	0.955803
768.848165	0.955197
769.173846	0.958727
769.499479	0.959783
769.825066	0.959124
770.150607	0.961388
770.476101	0.956800
770.801548	0.956882
771.126949	0.961402
771.452303	0.961422
771.777611	0.960976
772.102872	0.960591
772.428087	0.960262
772.753256	0.960763
773.078378	0.962080
773.403453	0.964199
773.728482	0.966436
774.053465	0.962370
774.378401	0.963328
774.703291	0.967468
775.028135	0.965015
775.352932	0.965387
775.677683	0.966837
776.002388	0.964339
776.327046	0.964555
776.651658	0.966120
776.976224	0.967267
777.300743	0.966634
777.625216	0.965694
777.949643	0.967330
778.274024	0.968213
778.598359	0.967774
778.922647	0.967294
779.246889	0.965868
779.571086	0.969297
779.895236	0.968847
780.219339	0.966932
780.543397	0.967009
780.867409	0.965179
781.191374	0.967005
781.515294	0.967214
781.839167	0.966246
782.162995	0.968246
782.486776	0.966330
782.810511	0.965918
783.134201	0.967804
783.457844	0.966191
783.781441	0.967160
784.104993	0.969011
784.428498	0.969564
784.751958	0.966431
785.075372	0.968657
785.398739	0.969138
785.722061	0.967939
786.045337	0.964745
786.368568	0.968303
786.691752	0.969749
787.014891	0.964910
787.337983	0.961481
787.661030	0.962072
787.984031	0.959180
788.306987	0.953708
788.629897	0.955134
788.952760	0.954639
789.275579	0.955570
789.598351	0.958090
789.921078	0.962786
790.243759	0.961443
790.566395	0.962634
790.888984	0.963338
791.211529	0.966790
791.534027	0.966133
791.856480	0.966646
792.178888	0.968339
792.501249	0.969603
792.823566	0.969246
793.145836	0.968583
793.468062	0.969909
793.790241	0.968080
794.112375	0.968421
794.434464	0.966380
794.756507	0.966460
795.078505	0.968595
795.400457	0.966958
795.722364	0.963615
796.044226	0.960493
796.366042	0.961190
796.687812	0.962273
797.009538	0.960603
797.331218	0.959794
797.652852	0.961716
797.974442	0.962826
798.295986	0.961850
798.617484	0.962469
798.938938	0.963758
799.260346	0.965995
799.581709	0.966047
799.903026	0.967110
800.224299	0.966029
800.545526	0.967495
800.866708	0.969075
801.187845	0.971002
801.508936	0.970716
801.829983	0.968504
802.150984	0.968121
802.471940	0.971979
802.792851	0.970784
803.113717	0.971822
803.434538	0.970038
803.755314	0.971346
804.076045	0.970911
804.396731	0.972110
804.717372	0.972226
805.037967	0.972720
805.358518	0.971750
805.679024	0.969640
805.999485	0.970094
806.319901	0.971662
806.640272	0.972039
806.960598	0.970398
807.280879	0.969027
807.601115	0.969599
807.921306	0.971400
808.241453	0.970423
808.561554	0.968297
808.881611	0.968935
809.201623	0.969865
809.521590	0.970003
809.841513	0.969569
810.161390	0.969797
810.481223	0.969162
810.801011	0.971132
811.120755	0.971942
811.440453	0.970215
811.760107	0.969145
812.079716	0.968901
812.399281	0.969539
812.718801	0.971679
813.038276	0.972076
813.357707	0.970965
813.677093	0.968696
813.996434	0.971144
814.315731	0.972039
814.634983	0.971625
814.954191	0.969896
815.273354	0.970681
815.592473	0.966909
815.911547	0.967950
816.230577	0.967344
816.549562	0.967430
816.868502	0.967280
817.187399	0.965524
817.506250	0.961976
817.825058	0.962699
818.143821	0.961033
818.462539	0.960121
818.781213	0.956836
819.099843	0.952919
819.418429	0.949049
819.736970	0.943651
820.055466	0.937462
820.373919	0.926241
820.692327	0.913019
821.010691	0.904357
821.329011	0.889389
821.647286	0.868019
821.965517	0.844372
822.283704	0.834758
822.601847	0.833969
822.919945	0.832954
823.237999	0.826060
823.556010	0.832498
823.873976	0.845477
824.191897	0.859514
824.509775	0.870021
824.827609	0.886810
825.145398	0.893600
825.463144	0.894824
825.780845	0.888605
826.098502	0.885601
826.416116	0.873597
826.733685	0.864384
827.051210	0.860387
827.368692	0.860960
827.686129	0.866139
828.003522	0.882311
828.320872	0.896596
828.638177	0.914319
828.955439	0.926445
829.272656	0.933686
829.589830	0.940781
829.906960	0.945822
830.224046	0.950197
830.541088	0.953495
830.858086	0.955116
831.175041	0.957147
831.491952	0.957249
831.808819	0.955246
832.125642	0.952789
832.442421	0.946142
832.759157	0.942148
833.075849	0.926448
833.392497	0.906410
833.709101	0.888841
834.025662	0.891383
834.342179	0.900602
834.658653	0.913130
834.975083	0.925820
835.291469	0.933099
835.607811	0.941594
835.924110	0.947991
836.240366	0.954949
836.556578	0.961430
836.872746	0.964662
837.188871	0.966919
837.504952	0.968990
837.820990	0.969739
838.136984	0.971894
838.452935	0.972418
838.768842	0.973872
839.084706	0.971859
839.400526	0.962025
839.716303	0.949302
840.032037	0.941608
840.347727	0.941315
840.663373	0.946027
840.978977	0.951349
841.294537	0.960879
841.610054	0.967026
841.925527	0.969855
842.240957	0.973338
842.556344	0.975306
842.871687	0.980168
843.186987	0.981020
843.502244	0.979421
843.817458	0.981014
844.132629	0.981938
844.447756	0.985774
844.762840	0.984666
845.077881	0.983416
845.392879	0.983771
845.707833	0.984798
846.022745	0.986137
846.337613	0.987533
846.652438	0.986328
846.967221	0.985810
847.281960	0.985305
847.596656	0.986958
847.911309	0.985698
848.225919	0.986987
848.540485	0.986773
848.855009	0.988680
849.169490	0.986682
849.483928	0.987088
849.798323	0.987362
850.112675	0.987131
850.426984	0.988091
850.741251	0.986557
851.055474	0.987422
851.369654	0.987605
851.683792	0.987378
851.997887	0.988302
852.311938	0.989674
852.625947	0.988092
852.939914	0.986416
853.253837	0.988406
853.567718	0.987717
853.881555	0.988455
854.195350	0.986462
854.509103	0.987322
854.822812	0.987722
855.136479	0.987982
855.450103	0.987466
855.763685	0.987066
856.077224	0.986544
856.390720	0.986966
856.704173	0.989125
857.017584	0.986698
857.330953	0.985452
857.644278	0.986048
857.957561	0.988174
858.270802	0.987854
858.584000	0.985866
858.897155	0.985182
859.210268	0.986501
859.523339	0.985784
859.836367	0.988056
860.149352	0.988088
860.462295	0.986297
860.775195	0.987958
861.088054	0.986057
861.400869	0.987993
861.713642	0.986993
862.026373	0.987194
862.339062	0.988208
862.651708	0.984885
862.964312	0.985522
863.276873	0.987597
863.589392	0.987492
863.901869	0.985987
864.214303	0.985138
864.526696	0.985191
864.839045	0.984106
865.151353	0.983005
865.463619	0.983624
865.775842	0.983864
866.088023	0.983265
866.400162	0.983571
866.712258	0.983303
867.024313	0.982736
867.336325	0.983816
867.648296	0.983752
867.960224	0.982954
868.272110	0.981916
868.583954	0.984031
868.895755	0.984005
869.207515	0.981364
869.519233	0.981401
869.830909	0.981795
870.142542	0.983398
870.454134	0.982833
870.765684	0.983057
871.077191	0.981384
871.388657	0.981830
871.700081	0.981343
872.011463	0.981384
872.322803	0.981060
872.634101	0.979873
872.945357	0.979220
873.256571	0.978598
873.567744	0.978826
873.878874	0.979834
874.189963	0.977471
874.501010	0.977043
874.812015	0.975595
875.122979	0.977992
875.433900	0.978312
875.744780	0.978992
876.055618	0.977470
876.366415	0.977005
876.677169	0.976341
876.987882	0.977208
877.298554	0.976311
877.609183	0.973612
877.919771	0.972641
878.230317	0.971094
878.540822	0.969553
878.851285	0.967450
879.161707	0.962651
879.472087	0.956785
879.782425	0.949043
880.092722	0.933227
880.402977	0.911117
880.713191	0.895044
881.023363	0.882177
881.333494	0.877730
881.643583	0.862732
881.953631	0.854559
882.263637	0.861525
882.573602	0.872755
882.883526	0.878672
883.193408	0.884718
883.503248	0.891478
883.813048	0.902644
884.122806	0.916746
884.432522	0.926676
884.742197	0.937869
885.051831	0.940623
885.361424	0.946088
885.670975	0.951921
885.980485	0.956827
886.289954	0.960221
886.599382	0.963293
886.908768	0.965521
887.218113	0.968112
887.527417	0.969771
887.836680	0.972918
888.145901	0.972514
888.455082	0.973089
888.764221	0.974556
889.073319	0.976943
889.382376	0.975614
889.691392	0.976299
890.000366	0.976125
890.309300	0.977749
890.618193	0.976680
890.927044	0.975761
891.235855	0.975862
891.544625	0.975878
891.853353	0.975794
892.162041	0.975509
892.470687	0.972053
892.779293	0.969242
893.087858	0.968769
893.396381	0.964863
893.704864	0.959379
894.013306	0.947314
894.321707	0.934403
894.630068	0.927350
894.938387	0.925106
895.246665	0.923866
895.554903	0.928241
895.863100	0.933625
896.171256	0.941279
896.479371	0.951579
896.787446	0.959134
897.095480	0.961785
897.403473	0.963537
897.711425	0.965618
898.019336	0.969537
898.327207	0.969682
898.635038	0.971391
898.942827	0.972179
899.250576	0.973425
899.558284	0.975711
899.865952	0.976025
900.173579	0.977963
900.481165	0.976372
900.788711	0.979397
901.096216	0.981536
901.403681	0.979284
901.711105	0.981808
902.018489	0.981537
902.325832	0.980925
902.633135	0.981757
902.940397	0.977477
903.247619	0.971299
903.554800	0.959116
903.861941	0.941591
904.169041	0.926267
904.476101	0.917543
904.783121	0.916114
905.090100	0.922302
905.397039	0.930255
905.703938	0.941245
906.010796	0.951421
906.317614	0.961170
906.624391	0.965597
906.931129	0.971422
907.237826	0.975602
907.544483	0.980199
907.851099	0.981238
908.157675	0.983740
908.464211	0.985583
908.770707	0.986246
909.077163	0.987686
909.383578	0.987754
909.689954	0.987752
909.996289	0.987602
910.302584	0.989243
910.608839	0.989711
910.915054	0.989701
911.221229	0.989305
911.527363	0.989212
911.833458	0.988645
912.139513	0.989133
912.445527	0.987640
912.751502	0.985991
913.057436	0.986660
913.363331	0.984568
913.669186	0.983622
913.975000	0.980182
914.280775	0.977588
914.586510	0.975252
914.892205	0.968578
915.197859	0.958830
915.503475	0.944993
915.809050	0.935206
916.114585	0.933524
916.420081	0.932087
916.725536	0.928849
917.030952	0.930557
917.336328	0.936600
917.641665	0.944437
917.946961	0.953139
918.252218	0.959183
918.557435	0.963334
918.862612	0.968271
919.167750	0.970946
919.472848	0.972511
919.777906	0.976469
920.082925	0.979110
920.387904	0.981452
920.692843	0.980769
920.997743	0.981444
921.302603	0.984133
921.607423	0.984218
921.912204	0.986151
922.216946	0.985954
922.521647	0.987364
922.826310	0.987050
923.130932	0.989588
923.435516	0.989454
923.740059	0.990228
924.044564	0.988293
924.349028	0.990490
924.653454	0.992075
924.957840	0.994286
925.262186	0.993142
925.566493	0.992116
925.870761	0.992464
926.174989	0.994362
926.479178	0.995352
926.783328	0.995990
927.087438	0.996262
927.391509	0.994909
927.695541	0.996962
927.999533	0.995986
928.303486	0.995976
928.607400	0.997644
928.911275	0.995880
929.215110	0.996949
929.518906	0.997892
929.822663	0.996336
930.126381	0.997359
930.430060	0.997216
930.733699	0.997375
931.037299	0.997175
931.340861	0.997642
931.644383	0.996347
931.947866	0.995638
932.251309	0.997274
932.554714	0.996847
932.858080	0.996502
933.161407	0.996056
933.464694	0.996158
933.767943	0.996743
934.071153	0.997374
934.374323	0.997336
934.677455	0.997379
934.980548	0.997968
935.283602	0.996900
935.586617	0.996053
935.889593	0.996568
936.192530	0.996658
936.495428	0.996231
936.798287	0.996443
937.101108	0.995931
937.403890	0.995134
937.706632	0.995304
938.009336	0.993790
938.312002	0.993970
938.614628	0.993086
938.917216	0.993136
939.219765	0.991686
939.522275	0.992106
939.824747	0.992280
940.127179	0.992084
940.429573	0.992240
940.731929	0.992761
941.034246	0.992917
941.336524	0.993251
941.638763	0.994368
941.940964	0.994973
942.243126	0.994240
942.545250	0.994125
942.847335	0.994775
943.149381	0.996140
943.451389	0.994302
943.753359	0.994686
944.055290	0.997121
944.357182	0.996385
944.659036	0.994490
944.960851	0.995776
945.262628	0.995815
945.564367	0.996438
945.866067	0.996406
946.167729	0.996288
946.469352	0.996492
946.770937	0.994735
947.072484	0.996903
947.373992	0.995979
947.675462	0.995693
947.976893	0.995768
948.278286	0.995619
948.579641	0.997264
948.880958	0.996578
949.182236	0.996617
949.483476	0.996829
949.784678	0.996302
950.085841	0.996115
950.386967	0.996134
950.688054	0.996415
950.989103	0.996994
951.290114	0.996234
951.591087	0.996058
951.892021	0.996272
952.192917	0.994980
952.493776	0.995222
952.794596	0.995340
953.095378	0.995490
953.396122	0.996000
953.696828	0.994353
953.997496	0.994882
954.298126	0.997462
954.598718	0.996734
954.899272	0.996723
955.199788	0.995068
955.500266	0.997663
955.800706	0.998501
956.101108	0.999351
956.401472	0.998545
956.701798	0.998351
957.002087	0.997961
957.302337	0.998770
957.602550	0.999920
957.902724	0.997971
958.202861	0.998362
958.502960	0.998231
958.803022	0.999080
959.103045	0.999966
959.403031	0.998992
959.702979	0.998483
960.002889	1.000395
960.302762	0.997996
960.602596	0.999803
960.902393	0.997713
961.202153	0.999908
961.501875	1.000670
961.801559	0.999472
962.101205	0.999695
962.400814	1.000046
962.700385	0.999759
962.999918	0.998794
963.299414	1.000215
963.598873	0.998585
963.898293	0.998078
964.197677	0.999182
964.497022	0.999863
964.796331	1.001361
965.095601	1.000055
965.394835	1.000095
965.694030	0.999343
965.993189	1.000071
966.292309	0.999962
966.591393	1.000744
966.890439	1.000200
967.189447	0.999570
967.488419	1.000003
967.787353	0.998709
968.086249	0.999402
968.385108	0.999263
968.683930	1.000253
968.982714	0.999751
969.281462	1.000290
969.580172	0.998975
969.878844	1.000149
970.177480	1.000047
970.476078	0.999275
970.774639	0.999698
971.073162	1.000757
971.371649	0.999770
971.670098	0.998932
971.968510	1.000163
972.266885	0.998550
972.565223	0.999638
972.863524	0.998214
973.161788	0.998274
973.460014	1.001142
973.758204	0.998700
974.056356	0.999902
974.354471	0.997457
974.652550	0.999697
974.950591	0.998657
975.248595	1.000625
975.546563	0.999815
975.844493	1.000891
976.142386	1.000170
976.440243	0.999735
976.738062	1.000458
977.035845	1.000800
977.333590	0.998771
977.631299	1.001455
977.928971	0.999746
978.226606	0.999049
978.524204	0.998813
978.821765	1.000161
979.119290	0.998997
979.416777	0.999507
979.714228	0.999873
980.011642	0.998935
980.309020	0.999933
980.606360	0.999602
980.903664	1.001469
981.200931	0.999086
981.498162	0.997827
981.795356	0.998618
982.092513	0.997791
982.389633	0.999098
982.686717	0.995271
982.983764	0.998070
983.280775	0.996338
983.577749	0.995233
983.874686	0.996581
984.171587	0.995946
984.468451	0.998196
984.765279	0.999632
985.062070	0.997232
985.358824	0.998469
985.655543	0.998545
985.952224	0.999256
986.248869	0.998457
986.545478	0.998802
986.842050	1.000998
987.138586	0.997774
987.435086	1.000556
987.731549	1.001464
988.027975	0.999931
988.324366	0.998747
988.620719	0.999097
988.917037	0.999135
989.213318	0.999872
989.509563	1.001513
989.805772	1.001087
990.101944	1.001081
990.398080	0.999453
990.694180	1.000322
990.990244	0.999468
991.286271	0.998971
991.582262	1.000972
991.878217	1.000014
992.174136	1.001011
992.470019	1.001329
992.765865	1.000221
993.061676	1.000965
993.357450	0.999676
993.653188	0.998952
993.948890	1.000244
994.244556	1.000444
994.540186	0.998913
994.835780	0.999534
995.131337	0.998973
995.426859	0.999532
995.722345	0.999472
996.017795	1.000070
996.313208	0.997913
996.608586	0.999128
996.903928	0.999448
997.199234	0.998774
997.494504	0.999314
997.789738	0.997442
998.084936	0.999067
998.380099	0.999449
998.675225	0.999138
998.970316	0.999446
999.265371	1.000215
999.560390	0.999580
999.855373	1.000574
1000.150320	1.000050
1000.445232	0.999731
1000.740108	0.999691
1001.034948	1.000375
1001.329752	1.000544
1001.624521	1.000703
1001.919254	0.999427
1002.213951	0.999919
1002.508613	0.999300
1002.803239	1.000461
1003.097829	1.001669
1003.392384	1.001187
1003.686903	0.999676
1003.981386	0.999562
1004.275834	0.999944
1004.570246	1.000664
1004.864623	1.000731
1005.158964	1.000948
1005.453270	1.000547
1005.747540	0.999388
1006.041775	0.999607
1006.335974	1.000686
1006.630138	0.999916
1006.924266	1.001043
1007.218359	1.001435
1007.512416	1.001227
1007.806438	0.999998
1008.100425	1.001484
1008.394376	1.000226
1008.688292	1.000176
1008.982172	1.001652
1009.276017	1.001061
1009.569827	1.000908
1009.863602	1.000057
1010.157341	1.001402
1010.451045	1.000544
1010.744714	0.999792
1011.038347	1.000686
1011.331945	1.000392
1011.625508	0.998862
1011.919036	1.000987
1012.212528	0.999775
1012.505986	0.999332
1012.799408	1.000302
1013.092795	1.000492
1013.386147	1.000654
1013.679464	1.000261
1013.972745	0.999523
1014.265992	0.999241
1014.559204	0.999550
1014.852380	1.001274
1015.145521	1.000204
1015.438628	1.001867
1015.731699	1.000137
1016.024736	1.000616
1016.317737	1.000358
1016.610703	1.000172
1016.903635	1.001399
1017.196531	1.000725
1017.489393	1.001337
1017.782219	1.000384
1018.075011	0.999697
1018.367768	1.000261
1018.660490	1.001132
1018.953177	1.001132
1019.245829	1.001132
