Dividing Wavelength (nm)	Counts (n)	Blue Motor Position (mm): 0.000000	Red Motor Position (mm): 46.000000	
326.493990	1.000114
326.888308	1.000114
327.282561	1.000114
327.676750	0.999958
328.070874	1.000263
328.464933	0.999520
328.858929	0.998654
329.252859	0.999730
329.646726	0.998563
330.040528	1.000494
330.434265	0.998705
330.827938	1.000672
331.221547	1.001269
331.615091	1.000659
332.008571	0.999903
332.401986	0.999795
332.795338	1.000073
333.188625	0.999472
333.581847	1.001513
333.975006	1.000607
334.368100	1.000649
334.761129	0.999704
335.154095	1.000816
335.546996	0.999045
335.939833	0.997971
336.332606	0.998949
336.725315	0.999575
337.117960	1.001385
337.510540	0.999770
337.903056	0.999366
338.295508	0.999100
338.687896	1.000134
339.080220	0.999992
339.472480	0.999832
339.864676	0.999746
340.256807	0.999725
340.648875	1.000415
341.040879	1.000962
341.432818	0.998638
341.824694	1.000502
342.216506	1.000984
342.608253	1.000181
342.999937	1.000005
343.391557	0.999131
343.783113	0.998798
344.174605	0.999569
344.566033	1.000868
344.957397	1.000321
345.348697	0.998977
345.739934	0.999270
346.131106	0.998915
346.522215	0.999424
346.913260	0.999344
347.304241	1.000168
347.695159	0.999965
348.086012	0.999230
348.476802	0.999771
348.867528	0.999904
349.258191	0.998784
349.648789	1.001813
350.039324	0.999373
350.429796	1.000884
350.820203	1.000671
351.210548	1.000102
351.600828	1.000756
351.991045	0.999207
352.381198	0.998327
352.771288	0.999515
353.161314	0.998330
353.551276	1.000389
353.941175	0.999954
354.331010	0.999755
354.720782	1.000568
355.110490	0.999201
355.500135	0.999736
355.889717	0.999522
356.279235	1.000102
356.668689	0.998531
357.058080	0.999798
357.447408	0.999788
357.836672	1.001162
358.225873	1.000493
358.615010	1.000130
359.004084	1.000841
359.393095	0.998968
359.782043	1.000251
360.170927	1.001499
360.559748	1.000465
360.948505	0.998813
361.337199	1.000684
361.725830	0.999167
362.114398	0.999916
362.502903	1.000452
362.891344	1.001502
363.279722	0.999969
363.668037	1.001150
364.056289	1.000233
364.444478	1.001172
364.832603	1.001987
365.220665	0.999502
365.608665	1.000131
365.996601	1.000709
366.384474	0.998705
366.772284	0.999370
367.160031	0.997831
367.547715	0.999243
367.935336	0.999645
368.322893	1.000188
368.710388	0.998375
369.097820	0.998991
369.485189	0.998830
369.872495	0.998771
370.259738	0.998493
370.646918	1.001044
371.034035	1.000509
371.421090	1.000330
371.808081	0.999420
372.195010	1.001170
372.581875	0.999241
372.968678	1.000168
373.355418	0.999533
373.742096	1.000139
374.128710	1.001488
374.515262	0.999659
374.901751	0.999727
375.288177	0.999487
375.674540	1.000050
376.060841	0.999139
376.447079	0.999766
376.833254	1.000480
377.219367	0.999971
377.605417	1.000634
377.991404	1.000696
378.377329	0.998897
378.763191	1.000047
379.148991	1.000904
379.534727	1.000453
379.920402	0.999784
380.306013	1.000686
380.691563	1.000546
381.077049	1.000535
381.462474	1.000611
381.847835	0.999945
382.233134	0.999855
382.618371	1.000353
383.003545	1.000685
383.388657	1.000362
383.773706	1.000437
384.158693	1.000082
384.543618	1.000717
384.928480	1.000561
385.313280	0.999962
385.698017	1.000715
386.082692	1.000879
386.467305	1.001005
386.851856	1.000597
387.236344	1.000667
387.620770	0.998980
388.005133	1.000765
388.389435	1.001419
388.773674	0.999849
389.157851	1.001464
389.541965	1.000888
389.926018	0.999669
390.310008	1.001316
390.693936	1.001027
391.077802	1.000892
391.461606	1.000516
391.845348	1.000813
392.229027	1.001879
392.612645	1.001000
392.996200	1.001466
393.379694	1.000191
393.763125	1.001375
394.146494	1.000359
394.529801	1.000247
394.913047	1.001271
395.296230	1.001112
395.679351	1.001122
396.062410	1.000418
396.445408	1.000770
396.828343	1.000239
397.211217	1.001054
397.594028	1.001691
397.976778	1.000738
398.359466	1.000754
398.742092	0.999474
399.124656	1.000774
399.507158	1.000426
399.889598	1.000658
400.271977	1.001730
400.654294	1.001463
401.036549	1.001921
401.418742	1.001235
401.800874	0.999961
402.182944	1.000633
402.564952	1.000530
402.946898	1.002084
403.328783	1.001308
403.710606	1.000590
404.092367	1.000855
404.474067	1.000812
404.855705	1.000428
405.237282	1.001231
405.618797	1.001485
406.000250	1.000808
406.381642	1.001485
406.762972	1.001014
407.144240	1.001648
407.525447	1.001297
407.906593	1.001171
408.287677	1.001150
408.668700	1.001957
409.049661	1.000610
409.430560	1.001624
409.811399	1.000411
410.192176	1.001018
410.572891	1.001005
410.953545	1.000724
411.334138	0.999648
411.714669	1.000771
412.095139	1.000746
412.475547	1.001154
412.855894	1.001789
413.236180	1.002002
413.616405	1.001761
413.996568	1.001902
414.376670	1.000889
414.756711	1.000436
415.136691	1.001315
415.516609	1.000603
415.896466	1.001222
416.276262	1.000392
416.655997	1.001366
417.035670	1.001279
417.415283	1.000639
417.794834	1.001431
418.174324	1.001068
418.553753	1.001989
418.933121	1.000233
419.312428	1.000987
419.691674	1.000930
420.070859	1.001468
420.449983	1.001545
420.829045	1.001034
421.208047	1.001504
421.586988	1.002339
421.965867	1.001090
422.344686	1.002094
422.723444	1.001477
423.102141	1.001097
423.480777	1.001201
423.859352	1.000545
424.237866	1.001249
424.616319	1.000818
424.994712	1.001375
425.373044	1.001128
425.751314	1.001100
426.129524	1.000396
426.507673	1.001877
426.885762	1.002384
427.263789	1.001498
427.641756	1.001589
428.019662	1.002568
428.397508	1.000645
428.775292	1.000017
429.153016	1.001763
429.530679	1.002335
429.908282	1.002388
430.285824	1.000158
430.663305	1.000894
431.040726	1.001003
431.418086	1.003225
431.795385	1.001442
432.172624	1.000517
432.549802	1.001807
432.926920	1.001511
433.303977	1.001027
433.680974	1.001995
434.057910	1.001028
434.434786	1.002566
434.811601	1.001145
435.188355	1.001258
435.565050	1.000896
435.941683	1.001140
436.318257	1.002346
436.694770	1.000283
437.071222	1.001723
437.447614	1.001498
437.823946	1.001838
438.200218	1.002144
438.576429	1.001448
438.952580	1.001634
439.328670	1.000671
439.704700	1.001185
440.080670	1.002350
440.456580	1.000608
440.832429	1.001050
441.208218	1.001695
441.583947	1.002184
441.959616	1.001591
442.335224	1.001225
442.710773	1.002490
443.086261	1.000702
443.461689	1.000785
443.837057	1.001187
444.212365	1.000624
444.587612	1.001521
444.962800	1.000968
445.337927	1.001603
445.712995	1.001794
446.088002	1.002027
446.462949	1.002124
446.837837	1.001347
447.212664	1.001743
447.587431	1.001628
447.962139	1.001096
448.336786	1.002539
448.711374	1.001937
449.085901	1.001885
449.460369	1.002473
449.834776	1.001903
450.209124	1.001787
450.583412	1.001626
450.957640	1.002384
451.331808	1.001688
451.705917	1.001266
452.079965	1.000817
452.453954	1.001531
452.827883	1.001814
453.201752	1.001489
453.575562	1.002211
453.949311	1.003193
454.323001	1.001419
454.696632	1.002096
455.070202	1.001383
455.443713	1.000637
455.817164	1.001899
456.190556	1.001035
456.563888	1.001706
456.937160	1.001675
457.310373	1.001155
457.683526	1.001298
458.056619	1.000969
458.429653	1.001894
458.802628	1.000327
459.175542	1.001232
459.548398	1.001807
459.921194	1.001239
460.293930	1.001471
460.666607	1.001361
461.039224	1.000127
461.411782	1.001968
461.784280	1.001001
462.156719	1.002339
462.529099	1.001692
462.901419	1.001842
463.273680	1.001678
463.645882	1.001576
464.018024	1.001935
464.390106	1.001037
464.762130	1.001927
465.134094	1.001532
465.505999	1.001667
465.877845	1.001049
466.249631	1.001660
466.621358	1.002176
466.993026	1.001547
467.364634	1.001370
467.736184	1.002719
468.107674	1.001361
468.479105	1.000964
468.850477	1.001924
469.221790	1.002173
469.593043	1.001649
469.964238	1.002565
470.335373	1.002043
470.706449	1.002320
471.077467	1.001725
471.448425	1.001450
471.819324	1.002370
472.190164	1.001686
472.560945	1.001763
472.931667	1.002394
473.302330	1.001625
473.672934	1.001690
474.043479	1.001668
474.413965	1.001492
474.784393	1.002568
475.154761	1.001354
475.525070	1.001804
475.895321	1.002100
476.265513	1.002093
476.635645	1.001526
477.005719	1.002058
477.375734	1.002099
477.745691	1.001418
478.115588	1.001715
478.485427	1.002265
478.855207	1.001763
479.224928	1.001824
479.594591	1.001546
479.964194	1.002514
480.333739	1.002527
480.703226	1.001841
481.072653	1.003099
481.442022	1.003143
481.811333	1.001880
482.180584	1.002743
482.549777	1.002061
482.918912	1.002300
483.287988	1.001793
483.657005	1.001865
484.025964	1.002741
484.394864	1.003250
484.763706	1.002415
485.132489	1.002019
485.501213	1.002139
485.869879	1.001835
486.238487	1.002297
486.607036	1.002532
486.975527	1.001293
487.343959	1.002065
487.712333	1.002053
488.080648	1.002316
488.448905	1.001842
488.817104	1.002647
489.185244	1.001934
489.553326	1.002384
489.921350	1.002082
490.289315	1.002392
490.657222	1.001792
491.025070	1.002041
491.392861	1.002847
491.760593	1.003027
492.128267	1.001894
492.495883	1.002286
492.863440	1.002225
493.230939	1.002027
493.598380	1.002151
493.965763	1.001832
494.333088	1.002378
494.700354	1.001722
495.067563	1.001928
495.434713	1.001978
495.801805	1.002942
496.168839	1.002006
496.535815	1.001948
496.902733	1.001817
497.269593	1.001383
497.636395	1.002176
498.003139	1.002066
498.369825	1.002854
498.736453	1.002077
499.103023	1.001824
499.469535	1.001438
499.835989	1.001849
500.202385	1.002023
500.568723	1.002251
500.935003	1.002015
501.301226	1.002124
501.667390	1.001538
502.033497	1.002374
502.399546	1.002366
502.765537	1.002219
503.131470	1.001698
503.497345	1.002062
503.863163	1.002852
504.228923	1.001725
504.594625	1.001999
504.960269	1.002305
505.325856	1.002678
505.691385	1.002205
506.056856	1.002274
506.422270	1.002264
506.787625	1.002602
507.152924	1.002116
507.518164	1.001962
507.883347	1.001851
508.248472	1.001667
508.613540	1.002543
508.978550	1.002222
509.343503	1.001461
509.708398	1.001958
510.073236	1.002284
510.438016	1.002390
510.802738	1.002226
511.167403	1.001417
511.532010	1.002298
511.896561	1.002142
512.261053	1.002621
512.625488	1.001781
512.989866	1.001843
513.354186	1.002068
513.718449	1.001795
514.082655	1.001529
514.446803	1.002207
514.810894	1.002342
515.174927	1.001630
515.538904	1.002068
515.902822	1.002411
516.266684	1.002370
516.630488	1.002525
516.994235	1.001369
517.357925	1.001685
517.721558	1.002135
518.085133	1.001087
518.448651	1.002796
518.812112	1.001839
519.175516	1.001435
519.538863	1.002754
519.902152	1.001545
520.265385	1.001425
520.628560	1.001544
520.991678	1.002329
521.354739	1.002214
521.717743	1.002310
522.080690	1.002002
522.443580	1.001981
522.806413	1.001980
523.169189	1.001437
523.531908	1.001775
523.894569	1.002144
524.257174	1.002526
524.619722	1.002266
524.982213	1.001629
525.344647	1.002500
525.707025	1.001160
526.069345	1.001730
526.431608	1.001811
526.793815	1.002047
527.155964	1.001828
527.518057	1.002202
527.880093	1.002200
528.242072	1.001112
528.603995	1.001602
528.965860	1.002606
529.327669	1.002075
529.689421	1.002094
530.051117	1.002297
530.412755	1.002178
530.774337	1.002438
531.135862	1.002750
531.497331	1.002129
531.858743	1.002024
532.220098	1.002850
532.581396	1.002236
532.942638	1.001985
533.303824	1.001947
533.664953	1.002666
534.026025	1.001765
534.387040	1.001844
534.747999	1.002292
535.108902	1.002215
535.469748	1.001642
535.830537	1.001950
536.191270	1.002048
536.551947	1.002126
536.912567	1.002283
537.273131	1.002332
537.633638	1.001097
537.994089	1.001861
538.354483	1.001629
538.714821	1.001735
539.075103	1.002750
539.435328	1.001885
539.795497	1.001710
540.155609	1.001763
540.515665	1.002007
540.875665	1.001794
541.235609	1.002014
541.595496	1.001555
541.955328	1.001409
542.315102	1.001284
542.674821	1.001490
543.034483	1.000918
543.394090	1.001184
543.753640	1.002311
544.113134	1.002095
544.472571	1.002133
544.831953	1.001936
545.191278	1.001937
545.550548	1.002033
545.909761	1.000783
546.268918	1.001539
546.628019	1.001937
546.987064	1.001310
547.346053	1.002475
547.704986	1.001956
548.063863	1.001883
548.422684	1.001923
548.781449	1.001790
549.140158	1.001138
549.498811	1.001485
549.857408	1.002042
550.215949	1.001825
550.574434	1.001140
550.932864	1.001371
551.291237	1.001904
551.649555	1.001575
552.007817	1.001351
552.366022	1.001300
552.724173	1.001751
553.082267	1.001708
553.440305	1.001556
553.798288	1.001777
554.156215	1.001630
554.514086	1.001750
554.871902	1.001319
555.229661	1.001268
555.587365	1.001673
555.945014	1.002715
556.302606	1.001291
556.660143	1.001442
557.017625	1.001317
557.375050	1.001397
557.732421	1.001330
558.089735	1.001379
558.446994	1.002647
558.804197	1.002333
559.161345	1.002639
559.518437	1.002270
559.875474	1.001501
560.232455	1.001959
560.589381	1.001673
560.946251	1.001301
561.303065	1.001131
561.659825	1.001924
562.016528	1.001630
562.373177	1.001499
562.729770	1.000944
563.086307	1.001536
563.442789	1.001961
563.799216	1.001235
564.155587	1.000977
564.511904	1.000650
564.868164	1.001034
565.224370	1.001383
565.580520	1.001642
565.936615	1.001522
566.292654	1.001072
566.648638	1.001232
567.004567	1.000724
567.360441	1.001597
567.716260	1.001973
568.072023	1.001224
568.427732	1.000687
568.783385	1.001630
569.138982	1.001184
569.494525	1.000822
569.850013	1.001620
570.205445	1.001569
570.560823	1.001527
570.916145	1.001198
571.271412	1.000738
571.626625	1.001144
571.981782	1.000777
572.336884	1.001369
572.691931	1.001640
573.046923	1.001223
573.401860	1.001278
573.756743	1.001394
574.111570	1.001483
574.466342	1.001714
574.821059	1.001768
575.175722	1.001743
575.530330	1.001460
575.884882	1.001370
576.239380	1.002253
576.593823	1.001666
576.948211	1.001439
577.302544	1.001316
577.656823	1.001815
578.011047	1.001827
578.365216	1.001945
578.719330	1.001114
579.073389	1.001656
579.427394	1.000951
579.781344	1.001310
580.135239	1.001191
580.489080	1.001666
580.842866	1.001762
581.196597	1.001025
581.550273	1.001122
581.903895	1.001729
582.257463	1.001143
582.610975	1.000453
582.964434	1.001877
583.317837	1.002090
583.671186	1.001124
584.024481	1.000533
584.377721	1.001078
584.730906	1.001778
585.084037	1.001651
585.437113	1.001286
585.790135	1.000652
586.143103	1.000650
586.496016	1.002185
586.848874	1.001238
587.201679	1.000763
587.554428	1.001417
587.907124	1.001610
588.259765	1.000877
588.612352	1.002378
588.964884	1.001719
589.317362	1.001837
589.669786	1.001728
590.022155	1.001783
590.374470	1.000732
590.726731	1.001816
591.078937	1.000834
591.431090	1.000640
591.783188	1.001182
592.135232	1.001954
592.487222	1.000813
592.839157	1.001043
593.191038	1.001641
593.542866	1.001005
593.894639	1.001564
594.246358	1.000624
594.598022	1.001075
594.949633	1.002057
595.301190	1.000683
595.652692	1.001625
596.004141	1.001600
596.355535	1.000902
596.706876	1.000714
597.058162	1.001369
597.409395	1.001589
597.760573	1.001184
598.111698	1.000792
598.462768	1.000693
598.813785	1.000786
599.164748	1.001085
599.515657	1.000483
599.866511	1.001027
600.217312	1.001042
600.568060	1.000708
600.918753	1.001252
601.269392	1.001385
601.619978	1.001419
601.970510	1.001538
602.320988	1.001922
602.671412	1.000744
603.021783	1.001187
603.372100	1.001581
603.722363	1.002521
604.072572	1.000655
604.422728	1.001397
604.772830	1.001012
605.122878	1.000956
605.472872	1.001914
605.822813	1.000255
606.172701	1.000828
606.522534	1.001822
606.872314	1.001056
607.222041	1.000821
607.571714	1.001032
607.921333	1.000803
608.270899	1.001573
608.620411	1.001308
608.969870	1.000888
609.319276	1.000735
609.668627	1.001414
610.017926	1.000246
610.367171	1.000692
610.716362	1.000548
611.065500	1.000479
611.414585	1.000410
611.763616	1.000696
612.112594	1.001125
612.461518	1.001179
612.810389	1.000871
613.159207	1.000862
613.507971	1.000236
613.856682	1.001677
614.205340	1.001682
614.553945	0.999347
614.902496	1.001229
615.250994	1.001138
615.599439	1.001648
615.947830	1.000430
616.296169	1.000672
616.644454	1.000261
616.992686	1.000334
617.340864	1.000485
617.688990	1.001340
618.037063	1.001359
618.385082	1.000967
618.733048	1.001378
619.080961	1.000987
619.428821	1.001070
619.776628	1.000717
620.124382	1.000513
620.472083	0.999912
620.819731	1.001086
621.167326	1.000545
621.514868	1.000596
621.862357	1.000740
622.209793	1.001165
622.557176	0.999479
622.904506	1.000642
623.251783	1.000228
623.599007	1.000774
623.946179	1.000711
624.293297	1.000512
624.640363	1.000337
624.987376	0.999832
625.334336	1.000751
625.681243	1.000391
626.028097	1.001832
626.374899	1.000454
626.721647	1.001092
627.068343	1.000955
627.414987	1.000554
627.761577	1.000598
628.108115	1.000929
628.454600	1.001036
628.801032	1.000082
629.147412	1.001009
629.493739	1.000431
629.840014	1.000265
630.186236	1.000737
630.532405	0.999850
630.878521	1.000087
631.224585	1.000284
631.570597	1.000415
631.916556	1.000054
632.262462	1.000150
632.608316	1.000885
632.954117	1.000674
633.299866	1.000247
633.645562	1.000672
633.991206	1.001229
634.336797	1.001516
634.682336	1.000751
635.027823	1.000318
635.373257	1.000633
635.718639	1.000331
636.063968	1.000350
636.409245	1.000453
636.754470	1.000506
637.099642	1.001751
637.444762	1.000492
637.789829	0.999759
638.134845	1.000352
638.479808	1.000385
638.824719	1.000149
639.169577	0.999532
639.514383	1.000563
639.859137	0.999655
640.203839	1.000062
640.548489	0.999860
640.893086	1.000435
641.237632	1.000595
641.582125	0.999879
641.926566	1.000124
642.270955	1.000264
642.615292	1.000514
642.959576	1.000119
643.303809	0.999922
643.647990	0.999513
643.992118	1.000516
644.336195	1.000704
644.680219	1.000722
645.024192	1.000133
645.368112	0.999126
645.711981	1.000825
646.055797	1.000319
646.399562	1.000191
646.743274	0.998334
647.086935	1.000402
647.430544	0.999781
647.774101	0.999686
648.117606	0.999485
648.461059	0.999206
648.804460	0.998864
649.147810	0.998780
649.491108	1.000161
649.834354	0.999356
650.177548	1.000201
650.520690	1.000505
650.863781	0.999592
651.206820	1.000012
651.549807	0.999382
651.892742	1.000305
652.235626	0.999938
652.578458	0.999778
652.921238	0.999666
653.263967	1.000044
653.606644	1.000677
653.949269	0.999672
654.291843	0.999053
654.634365	0.999241
654.976836	0.999712
655.319255	0.998990
655.661622	1.000332
656.003938	0.999105
656.346203	0.999733
656.688416	1.000203
657.030577	1.000615
657.372687	0.999463
657.714746	0.999174
658.056753	0.999496
658.398708	1.000002
658.740612	0.999871
659.082465	1.000022
659.424266	0.999305
659.766016	0.998469
660.107715	0.998655
660.449362	0.998840
660.790958	0.998574
661.132503	0.997848
661.473996	0.999551
661.815438	0.999221
662.156829	0.998785
662.498168	0.999728
662.839456	0.998979
663.180693	1.000321
663.521879	0.998986
663.863013	0.999785
664.204097	0.999442
664.545129	0.999162
664.886110	0.999178
665.227040	0.997825
665.567918	0.998691
665.908746	0.999630
666.249522	0.998769
666.590248	0.998890
666.930922	0.999267
667.271545	0.998787
667.612118	0.998853
667.952639	0.998271
668.293109	0.999194
668.633528	0.999174
668.973896	0.998653
669.314213	0.998487
669.654480	0.998579
669.994695	0.998856
670.334859	0.998912
670.674973	0.997289
671.015035	0.998813
671.355047	0.998256
671.695008	0.997968
672.034918	0.998219
672.374777	0.998291
672.714585	0.998305
673.054342	0.998219
673.394049	0.997599
673.733705	0.997442
674.073310	0.997906
674.412864	0.997782
674.752368	0.997414
675.091820	0.998629
675.431223	0.997461
675.770574	0.996866
676.109875	0.997031
676.449125	0.997718
676.788324	0.997246
677.127473	0.999134
677.466571	0.997357
677.805619	0.997955
678.144616	0.997037
678.483562	0.996682
678.822458	0.996960
679.161303	0.998078
679.500098	0.997177
679.838842	0.997956
680.177535	0.997762
680.516179	0.997371
680.854771	0.997263
681.193314	0.997505
681.531805	0.996623
681.870247	0.996672
682.208638	0.996089
682.546978	0.995131
682.885268	0.995765
683.223508	0.995371
683.561697	0.994502
683.899836	0.995775
684.237925	0.996393
684.575963	0.994832
684.913951	0.995591
685.251889	0.995761
685.589776	0.994626
685.927614	0.995018
686.265401	0.994917
686.603137	0.994729
686.940824	0.993641
687.278460	0.993864
687.616046	0.993686
687.953582	0.992476
688.291068	0.992875
688.628504	0.993222
688.965889	0.993359
689.303224	0.992471
689.640510	0.993864
689.977745	0.993146
690.314930	0.993274
690.652065	0.993982
690.989150	0.993712
691.326185	0.992994
691.663170	0.993100
692.000105	0.993862
692.336990	0.993307
692.673825	0.993287
693.010610	0.993402
693.347345	0.991582
693.684030	0.992835
694.020665	0.992869
694.357251	0.993225
694.693786	0.993640
695.030272	0.993893
695.366707	0.992324
695.703093	0.992539
696.039429	0.992453
696.375716	0.991876
696.711952	0.992026
697.048139	0.992659
697.384276	0.991636
697.720363	0.991496
698.056400	0.990304
698.392388	0.990911
698.728326	0.992544
699.064214	0.993333
699.400053	0.992793
699.735842	0.992576
700.071581	0.992303
700.407270	0.991288
700.742910	0.991236
701.078501	0.992191
701.414042	0.991485
701.749533	0.991262
702.084974	0.991431
702.420366	0.990531
702.755709	0.991415
703.091002	0.992134
703.426246	0.990143
703.761440	0.991832
704.096584	0.991523
704.431679	0.989994
704.766725	0.990206
705.101721	0.989479
705.436668	0.988604
705.771565	0.990323
706.106413	0.989848
706.441212	0.989533
706.775961	0.988737
707.110661	0.990114
707.445311	0.989745
707.779913	0.989646
708.114465	0.988621
708.448967	0.988630
708.783421	0.987634
709.117825	0.986568
709.452180	0.987983
709.786485	0.986314
710.120742	0.985598
710.454949	0.985591
710.789107	0.985562
711.123216	0.984590
711.457275	0.984674
711.791286	0.982689
712.125247	0.982710
712.459159	0.983789
712.793023	0.985647
713.126837	0.984117
713.460602	0.982223
713.794318	0.984369
714.127985	0.983086
714.461602	0.983959
714.795171	0.984135
715.128691	0.983228
715.462162	0.984370
715.795584	0.982819
716.128957	0.983494
716.462281	0.984691
716.795556	0.984398
717.128782	0.984242
717.461960	0.985228
717.795088	0.983301
718.128167	0.984817
718.461198	0.986482
718.794180	0.984859
719.127113	0.984753
719.459997	0.985437
719.792833	0.985246
720.125619	0.984929
720.458357	0.985685
720.791046	0.986139
721.123686	0.984323
721.456278	0.985148
721.788821	0.984378
722.121315	0.983711
722.453761	0.983882
722.786158	0.984025
723.118506	0.983786
723.450805	0.985086
723.783056	0.983651
724.115259	0.982527
724.447412	0.983594
724.779518	0.983453
725.111574	0.982711
725.443582	0.981810
725.775542	0.982115
726.107453	0.981286
726.439315	0.980746
726.771129	0.980995
727.102895	0.980421
727.434612	0.978819
727.766281	0.978619
728.097901	0.978918
728.429473	0.980024
728.760996	0.978374
729.092471	0.978400
729.423897	0.979671
729.755276	0.977822
730.086606	0.977626
730.417887	0.978700
730.749120	0.977733
731.080305	0.974859
731.411442	0.975073
731.742530	0.976856
732.073570	0.975616
732.404562	0.974509
732.735506	0.974323
733.066401	0.975184
733.397249	0.975091
733.728048	0.976219
734.058798	0.976263
734.389501	0.977275
734.720156	0.977217
735.050762	0.978251
735.381320	0.976956
735.711831	0.979952
736.042293	0.978472
736.372707	0.977753
736.703073	0.977594
737.033391	0.979659
737.363661	0.977860
737.693883	0.977228
738.024056	0.975987
738.354182	0.977497
738.684260	0.975357
739.014290	0.975059
739.344272	0.976191
739.674207	0.973926
740.004093	0.974612
740.333931	0.974636
740.663722	0.973188
740.993464	0.973334
741.323159	0.972942
741.652806	0.972446
741.982405	0.973107
742.311956	0.973297
742.641460	0.973699
742.970915	0.972880
743.300323	0.974898
743.629683	0.975839
743.958996	0.975791
744.288260	0.975696
744.617477	0.975975
744.946647	0.975596
745.275768	0.975316
745.604842	0.974511
745.933869	0.977377
746.262847	0.975476
746.591778	0.973636
746.920662	0.975062
747.249498	0.976420
747.578286	0.975045
747.907027	0.972362
748.235720	0.975414
748.564365	0.973089
748.892963	0.971860
749.221514	0.972311
749.550017	0.974413
749.878473	0.972469
750.206881	0.974494
750.535242	0.974427
750.863555	0.974666
751.191821	0.974575
751.520039	0.974504
751.848210	0.976574
752.176334	0.973126
752.504411	0.973046
752.832440	0.974801
753.160421	0.974855
753.488356	0.975205
753.816243	0.974003
754.144082	0.973976
754.471875	0.975870
754.799620	0.973268
755.127318	0.973469
755.454969	0.973606
755.782572	0.972478
756.110129	0.973651
756.437638	0.975132
756.765100	0.971763
757.092515	0.972610
757.419882	0.971606
757.747203	0.974041
758.074477	0.972580
758.401703	0.972733
758.728882	0.971262
759.056014	0.971237
759.383099	0.971614
759.710138	0.972495
760.037129	0.972903
760.364073	0.970216
760.690970	0.971103
761.017820	0.972351
761.344623	0.972171
761.671379	0.969985
761.998088	0.967691
762.324751	0.965845
762.651366	0.962862
762.977935	0.955899
763.304456	0.949011
763.630931	0.944466
763.957359	0.948551
764.283740	0.955171
764.610074	0.956337
764.936362	0.958245
765.262602	0.961468
765.588796	0.964172
765.914943	0.967472
766.241044	0.969810
766.567097	0.970277
766.893104	0.970674
767.219064	0.970436
767.544978	0.972643
767.870845	0.974370
768.196665	0.974688
768.522438	0.973357
768.848165	0.973247
769.173846	0.974479
769.499479	0.976068
769.825066	0.976094
770.150607	0.976997
770.476101	0.974291
770.801548	0.973169
771.126949	0.976891
771.452303	0.975562
771.777611	0.975396
772.102872	0.975299
772.428087	0.975414
772.753256	0.975582
773.078378	0.976567
773.403453	0.977745
773.728482	0.979159
774.053465	0.976547
774.378401	0.976958
774.703291	0.979313
775.028135	0.978575
775.352932	0.978778
775.677683	0.979427
776.002388	0.977934
776.327046	0.977377
776.651658	0.978883
776.976224	0.979511
777.300743	0.979919
777.625216	0.979401
777.949643	0.980058
778.274024	0.979711
778.598359	0.979985
778.922647	0.978724
779.246889	0.979598
779.571086	0.981182
779.895236	0.979560
780.219339	0.979240
780.543397	0.978908
780.867409	0.978261
781.191374	0.978684
781.515294	0.980124
781.839167	0.978803
782.162995	0.980534
782.486776	0.977643
782.810511	0.978931
783.134201	0.978699
783.457844	0.978234
783.781441	0.978002
784.104993	0.980501
784.428498	0.980772
784.751958	0.980040
785.075372	0.980070
785.398739	0.980353
785.722061	0.980637
786.045337	0.977909
786.368568	0.980841
786.691752	0.980995
787.014891	0.977372
787.337983	0.976668
787.661030	0.975833
787.984031	0.973935
788.306987	0.970036
788.629897	0.972155
788.952760	0.970703
789.275579	0.970652
789.598351	0.972889
789.921078	0.976010
790.243759	0.974405
790.566395	0.975397
790.888984	0.977283
791.211529	0.978050
791.534027	0.978968
791.856480	0.978913
792.178888	0.979609
792.501249	0.980962
792.823566	0.980209
793.145836	0.979700
793.468062	0.981849
793.790241	0.980794
794.112375	0.979674
794.434464	0.978190
794.756507	0.980055
795.078505	0.980182
795.400457	0.979111
795.722364	0.977617
796.044226	0.975039
796.366042	0.974559
796.687812	0.975268
797.009538	0.975276
797.331218	0.974596
797.652852	0.976550
797.974442	0.976904
798.295986	0.976058
798.617484	0.976765
798.938938	0.977452
799.260346	0.978992
799.581709	0.978110
799.903026	0.978423
800.224299	0.977968
800.545526	0.979955
800.866708	0.979975
801.187845	0.982024
801.508936	0.981512
801.829983	0.980744
802.150984	0.980126
802.471940	0.982550
802.792851	0.982372
803.113717	0.983711
803.434538	0.981790
803.755314	0.982446
804.076045	0.981795
804.396731	0.982221
804.717372	0.982866
805.037967	0.981544
805.358518	0.982566
805.679024	0.981771
805.999485	0.981332
806.319901	0.982985
806.640272	0.982538
806.960598	0.981178
807.280879	0.980006
807.601115	0.980732
807.921306	0.980762
808.241453	0.981055
808.561554	0.980383
808.881611	0.980328
809.201623	0.980190
809.521590	0.979413
809.841513	0.980001
810.161390	0.980492
810.481223	0.979931
810.801011	0.980716
811.120755	0.981731
811.440453	0.980278
811.760107	0.979405
812.079716	0.978933
812.399281	0.980234
812.718801	0.981886
813.038276	0.982284
813.357707	0.981284
813.677093	0.978911
813.996434	0.980837
814.315731	0.981581
814.634983	0.981827
814.954191	0.980181
815.273354	0.980459
815.592473	0.979330
815.911547	0.979190
816.230577	0.978568
816.549562	0.977905
816.868502	0.980287
817.187399	0.978011
817.506250	0.975105
817.825058	0.976548
818.143821	0.975516
818.462539	0.973306
818.781213	0.972231
819.099843	0.968651
819.418429	0.968618
819.736970	0.965403
820.055466	0.960751
820.373919	0.953996
820.692327	0.945146
821.010691	0.939804
821.329011	0.931167
821.647286	0.918898
821.965517	0.904619
822.283704	0.901420
822.601847	0.899754
822.919945	0.896501
823.237999	0.889690
823.556010	0.894369
823.873976	0.901974
824.191897	0.909211
824.509775	0.915814
824.827609	0.926476
825.145398	0.929478
825.463144	0.932426
825.780845	0.928350
826.098502	0.926587
826.416116	0.919181
826.733685	0.912895
827.051210	0.910886
827.368692	0.912442
827.686129	0.913499
828.003522	0.924140
828.320872	0.932692
828.638177	0.943395
828.955439	0.952320
829.272656	0.956903
829.589830	0.960618
829.906960	0.964409
830.224046	0.967502
830.541088	0.969025
830.858086	0.969118
831.175041	0.972778
831.491952	0.971613
831.808819	0.970320
832.125642	0.970117
832.442421	0.964149
832.759157	0.961709
833.075849	0.951989
833.392497	0.940706
833.709101	0.928451
834.025662	0.930050
834.342179	0.933408
834.658653	0.941802
834.975083	0.950868
835.291469	0.954988
835.607811	0.960311
835.924110	0.963587
836.240366	0.969484
836.556578	0.974125
836.872746	0.976598
837.188871	0.978528
837.504952	0.978958
837.820990	0.980718
838.136984	0.980619
838.452935	0.982544
838.768842	0.981945
839.084706	0.980346
839.400526	0.974967
839.716303	0.965908
840.032037	0.961461
840.347727	0.961629
840.663373	0.964599
840.978977	0.967947
841.294537	0.973585
841.610054	0.978676
841.925527	0.980527
842.240957	0.981950
842.556344	0.982972
842.871687	0.986279
843.186987	0.988023
843.502244	0.986710
843.817458	0.986454
844.132629	0.986743
844.447756	0.989796
844.762840	0.988897
845.077881	0.988235
845.392879	0.988093
845.707833	0.989074
846.022745	0.989765
846.337613	0.989921
846.652438	0.990588
846.967221	0.989034
847.281960	0.989762
847.596656	0.991846
847.911309	0.989966
848.225919	0.991118
848.540485	0.990664
848.855009	0.991737
849.169490	0.990882
849.483928	0.992060
849.798323	0.991496
850.112675	0.991492
850.426984	0.992164
850.741251	0.992091
851.055474	0.991908
851.369654	0.990501
851.683792	0.992911
851.997887	0.990821
852.311938	0.992232
852.625947	0.992432
852.939914	0.990678
853.253837	0.991234
853.567718	0.991691
853.881555	0.991719
854.195350	0.989617
854.509103	0.992237
854.822812	0.990436
855.136479	0.990809
855.450103	0.991221
855.763685	0.991260
856.077224	0.990389
856.390720	0.991232
856.704173	0.992608
857.017584	0.991650
857.330953	0.990118
857.644278	0.991135
857.957561	0.991240
858.270802	0.990316
858.584000	0.990510
858.897155	0.990159
859.210268	0.990389
859.523339	0.988946
859.836367	0.991270
860.149352	0.991526
860.462295	0.990602
860.775195	0.990693
861.088054	0.989451
861.400869	0.990755
861.713642	0.990480
862.026373	0.990603
862.339062	0.991505
862.651708	0.989825
862.964312	0.989856
863.276873	0.990897
863.589392	0.989858
863.901869	0.990305
864.214303	0.989884
864.526696	0.989467
864.839045	0.988857
865.151353	0.987421
865.463619	0.989446
865.775842	0.988527
866.088023	0.987150
866.400162	0.988769
866.712258	0.988220
867.024313	0.987990
867.336325	0.988257
867.648296	0.989176
867.960224	0.988949
868.272110	0.987488
868.583954	0.988201
868.895755	0.988503
869.207515	0.987945
869.519233	0.987267
869.830909	0.988122
870.142542	0.988103
870.454134	0.987515
870.765684	0.988048
871.077191	0.985436
871.388657	0.987336
871.700081	0.986042
872.011463	0.986034
872.322803	0.987577
872.634101	0.985746
872.945357	0.985676
873.256571	0.985338
873.567744	0.983809
873.878874	0.986063
874.189963	0.984181
874.501010	0.983869
874.812015	0.983923
875.122979	0.984911
875.433900	0.984297
875.744780	0.985710
876.055618	0.983214
876.366415	0.983045
876.677169	0.983456
876.987882	0.983359
877.298554	0.983740
877.609183	0.981671
877.919771	0.981371
878.230317	0.979345
878.540822	0.978811
878.851285	0.976167
879.161707	0.972917
879.472087	0.969000
879.782425	0.963833
880.092722	0.952989
880.402977	0.937755
880.713191	0.929893
881.023363	0.923076
881.333494	0.919886
881.643583	0.911388
881.953631	0.905473
882.263637	0.908648
882.573602	0.913638
882.883526	0.918425
883.193408	0.921612
883.503248	0.924949
883.813048	0.931561
884.122806	0.940590
884.432522	0.948690
884.742197	0.955190
885.051831	0.957213
885.361424	0.960742
885.670975	0.964615
885.980485	0.969628
886.289954	0.971133
886.599382	0.974845
886.908768	0.974559
887.218113	0.977770
887.527417	0.978469
887.836680	0.978788
888.145901	0.980462
888.455082	0.979144
888.764221	0.982015
889.073319	0.983747
889.382376	0.983015
889.691392	0.983939
890.000366	0.983502
890.309300	0.984009
890.618193	0.982704
890.927044	0.982814
891.235855	0.982561
891.544625	0.982561
891.853353	0.982302
892.162041	0.982680
892.470687	0.979644
892.779293	0.978149
893.087858	0.977592
893.396381	0.975584
893.704864	0.971256
894.013306	0.964276
894.321707	0.954792
894.630068	0.950449
894.938387	0.948170
895.246665	0.946770
895.554903	0.948740
895.863100	0.952469
896.171256	0.958218
896.479371	0.965532
896.787446	0.969671
897.095480	0.971931
897.403473	0.974245
897.711425	0.974754
898.019336	0.979339
898.327207	0.978881
898.635038	0.980134
898.942827	0.979392
899.250576	0.980677
899.558284	0.981908
899.865952	0.982766
900.173579	0.982255
900.481165	0.982062
900.788711	0.984567
901.096216	0.985682
901.403681	0.984092
901.711105	0.985507
902.018489	0.986705
902.325832	0.985394
902.633135	0.986392
902.940397	0.983668
903.247619	0.979772
903.554800	0.970603
903.861941	0.960247
904.169041	0.950903
904.476101	0.944465
904.783121	0.941798
905.090100	0.947026
905.397039	0.952005
905.703938	0.958392
906.010796	0.965277
906.317614	0.971659
906.624391	0.975683
906.931129	0.978222
907.237826	0.981628
907.544483	0.984110
907.851099	0.986157
908.157675	0.988250
908.464211	0.988739
908.770707	0.989233
909.077163	0.989402
909.383578	0.989767
909.689954	0.989798
909.996289	0.990745
910.302584	0.991208
910.608839	0.993368
910.915054	0.992355
911.221229	0.992290
911.527363	0.991119
911.833458	0.992219
912.139513	0.991679
912.445527	0.988704
912.751502	0.989473
913.057436	0.990468
913.363331	0.988748
913.669186	0.987549
913.975000	0.984816
914.280775	0.983423
914.586510	0.981096
914.892205	0.976887
915.197859	0.970515
915.503475	0.959986
915.809050	0.953906
916.114585	0.954598
916.420081	0.952485
916.725536	0.949538
917.030952	0.950558
917.336328	0.954866
917.641665	0.959878
917.946961	0.966039
918.252218	0.970130
918.557435	0.973665
918.862612	0.977374
919.167750	0.978359
919.472848	0.979521
919.777906	0.982237
920.082925	0.985020
920.387904	0.987779
920.692843	0.987224
920.997743	0.986016
921.302603	0.988583
921.607423	0.988495
921.912204	0.989807
922.216946	0.988537
922.521647	0.989572
922.826310	0.991335
923.130932	0.990840
923.435516	0.992304
923.740059	0.991703
924.044564	0.990939
924.349028	0.992525
924.653454	0.994140
924.957840	0.995136
925.262186	0.995320
925.566493	0.994124
925.870761	0.993944
926.174989	0.995951
926.479178	0.996701
926.783328	0.997497
927.087438	0.996124
927.391509	0.996615
927.695541	0.997027
927.999533	0.996608
928.303486	0.997461
928.607400	0.997507
928.911275	0.996018
929.215110	0.996824
929.518906	0.998612
929.822663	0.995865
930.126381	0.998543
930.430060	0.998366
930.733699	0.996929
931.037299	0.996969
931.340861	0.998193
931.644383	0.996501
931.947866	0.996000
932.251309	0.998297
932.554714	0.996636
932.858080	0.997526
933.161407	0.997126
933.464694	0.998129
933.767943	0.995081
934.071153	0.997486
934.374323	0.997971
934.677455	0.997217
934.980548	0.998132
935.283602	0.996867
935.586617	0.997011
935.889593	0.996614
936.192530	0.996550
936.495428	0.997311
936.798287	0.997116
937.101108	0.996914
937.403890	0.996075
937.706632	0.996151
938.009336	0.996786
938.312002	0.995048
938.614628	0.995452
938.917216	0.994285
939.219765	0.992776
939.522275	0.994776
939.824747	0.994266
940.127179	0.993551
940.429573	0.995297
940.731929	0.994609
941.034246	0.993316
941.336524	0.994608
941.638763	0.995428
941.940964	0.995173
942.243126	0.994840
942.545250	0.995771
942.847335	0.996655
943.149381	0.997010
943.451389	0.995800
943.753359	0.995728
944.055290	0.998529
944.357182	0.996026
944.659036	0.995738
944.960851	0.995919
945.262628	0.997039
945.564367	0.997683
945.866067	0.997385
946.167729	0.996375
946.469352	0.995736
946.770937	0.995939
947.072484	0.997678
947.373992	0.997059
947.675462	0.997235
947.976893	0.996896
948.278286	0.996839
948.579641	0.997462
948.880958	0.996846
949.182236	0.997982
949.483476	0.996736
949.784678	0.996933
950.085841	0.996907
950.386967	0.996654
950.688054	0.995777
950.989103	0.997953
951.290114	0.995357
951.591087	0.996170
951.892021	0.997622
952.192917	0.995422
952.493776	0.996189
952.794596	0.995983
953.095378	0.995271
953.396122	0.996652
953.696828	0.995173
953.997496	0.997038
954.298126	0.997610
954.598718	0.997330
954.899272	0.998063
955.199788	0.996510
955.500266	0.997819
955.800706	0.998309
956.101108	0.998553
956.401472	0.999242
956.701798	0.999239
957.002087	0.998214
957.302337	0.996929
957.602550	0.998760
957.902724	0.997709
958.202861	0.998352
958.502960	0.999696
958.803022	0.998340
959.103045	0.999682
959.403031	0.999298
959.702979	0.999268
960.002889	0.998245
960.302762	0.998970
960.602596	0.999464
960.902393	0.998529
961.202153	0.999290
961.501875	0.998910
961.801559	0.998677
962.101205	0.998960
962.400814	0.999388
962.700385	0.999851
962.999918	0.997772
963.299414	0.999338
963.598873	0.998121
963.898293	0.998389
964.197677	0.998032
964.497022	0.999128
964.796331	1.000583
965.095601	0.999855
965.394835	0.998307
965.694030	0.999560
965.993189	0.999418
966.292309	0.999407
966.591393	1.000495
966.890439	0.999153
967.189447	0.997907
967.488419	0.999864
967.787353	0.998885
968.086249	0.998388
968.385108	0.999203
968.683930	0.999828
968.982714	0.999550
969.281462	0.999679
969.580172	0.998360
969.878844	0.999891
970.177480	0.999570
970.476078	1.000713
970.774639	0.998759
971.073162	1.000442
971.371649	0.998518
971.670098	0.998970
971.968510	1.000308
972.266885	0.998294
972.565223	0.999605
972.863524	0.998113
973.161788	0.997617
973.460014	1.000070
973.758204	0.999099
974.056356	0.999260
974.354471	0.997918
974.652550	0.999674
974.950591	0.998385
975.248595	1.000102
975.546563	0.999857
975.844493	1.001315
976.142386	0.999104
976.440243	0.999505
976.738062	1.000499
977.035845	0.999601
977.333590	1.000512
977.631299	1.000292
977.928971	0.999180
978.226606	0.998439
978.524204	0.998877
978.821765	1.000242
979.119290	0.998247
979.416777	1.000782
979.714228	0.999405
980.011642	0.998260
980.309020	1.000028
980.606360	0.999823
980.903664	1.001865
981.200931	0.998624
981.498162	0.997562
981.795356	0.997884
982.092513	0.997691
982.389633	0.999754
982.686717	0.996071
982.983764	0.998467
983.280775	0.996154
983.577749	0.995267
983.874686	0.996234
984.171587	0.997329
984.468451	0.999365
984.765279	0.998060
985.062070	0.997658
985.358824	0.997103
985.655543	0.998293
985.952224	0.998232
986.248869	0.998941
986.545478	0.999377
986.842050	1.000710
987.138586	0.997149
987.435086	0.998651
987.731549	0.999795
988.027975	1.000609
988.324366	0.999676
988.620719	0.999720
988.917037	0.998334
989.213318	0.999725
989.509563	1.000000
989.805772	1.001192
990.101944	1.000397
990.398080	0.998990
990.694180	0.999229
990.990244	1.000225
991.286271	0.999022
991.582262	1.000515
991.878217	0.999104
992.174136	1.000477
992.470019	1.001009
992.765865	1.000853
993.061676	0.999627
993.357450	1.000059
993.653188	0.998324
993.948890	0.998140
994.244556	0.999780
994.540186	0.999375
994.835780	0.998760
995.131337	0.999871
995.426859	0.999857
995.722345	1.000622
996.017795	0.999067
996.313208	0.998956
996.608586	0.999068
996.903928	0.999703
997.199234	0.998681
997.494504	0.998532
997.789738	0.998208
998.084936	0.998240
998.380099	0.999791
998.675225	0.998851
998.970316	0.999763
999.265371	0.998846
999.560390	0.999996
999.855373	1.000145
1000.150320	1.000673
1000.445232	1.000058
1000.740108	0.999279
1001.034948	0.999085
1001.329752	1.000199
1001.624521	0.999003
1001.919254	0.999451
1002.213951	0.999482
1002.508613	0.999006
1002.803239	1.000113
1003.097829	1.000610
1003.392384	1.000160
1003.686903	0.999386
1003.981386	1.000671
1004.275834	1.000550
1004.570246	0.998910
1004.864623	0.999860
1005.158964	1.000762
1005.453270	0.998640
1005.747540	0.998339
1006.041775	0.999409
1006.335974	1.001709
1006.630138	1.000095
1006.924266	1.000070
1007.218359	1.000717
1007.512416	1.000984
1007.806438	1.000118
1008.100425	1.000683
1008.394376	0.998970
1008.688292	1.000319
1008.982172	1.001546
1009.276017	1.000587
1009.569827	0.999826
1009.863602	0.999672
1010.157341	1.000867
1010.451045	1.001004
1010.744714	0.998981
1011.038347	0.999964
1011.331945	1.000110
1011.625508	0.998300
1011.919036	1.000176
1012.212528	0.999654
1012.505986	0.999075
1012.799408	0.999493
1013.092795	1.001620
1013.386147	0.999463
1013.679464	1.000640
1013.972745	0.999197
1014.265992	0.998734
1014.559204	1.000505
1014.852380	1.000096
1015.145521	1.000831
1015.438628	0.999955
1015.731699	0.999659
1016.024736	0.999734
1016.317737	0.999760
1016.610703	1.000421
1016.903635	1.000565
1017.196531	0.999666
1017.489393	1.000378
1017.782219	1.001567
1018.075011	0.999964
1018.367768	0.999748
1018.660490	1.000699
1018.953177	1.000699
1019.245829	1.000699
