Dividing Wavelength (nm)	Counts (n)	Blue Motor Position (mm): 0.000000	Red Motor Position (mm): 46.400000	
326.493990	1.001277
326.888308	1.001277
327.282561	1.001277
327.676750	1.000901
328.070874	0.998756
328.464933	1.000863
328.858929	0.999325
329.252859	1.000056
329.646726	0.998650
330.040528	1.000849
330.434265	0.998979
330.827938	1.000736
331.221547	1.001715
331.615091	1.000332
332.008571	1.000460
332.401986	1.001139
332.795338	1.001732
333.188625	0.999418
333.581847	1.001276
333.975006	1.000637
334.368100	1.000989
334.761129	1.000072
335.154095	1.001629
335.546996	1.001102
335.939833	1.000042
336.332606	1.000583
336.725315	1.001325
337.117960	1.002142
337.510540	0.999544
337.903056	1.000754
338.295508	0.999495
338.687896	1.000895
339.080220	0.999491
339.472480	1.000875
339.864676	1.000227
340.256807	0.999874
340.648875	1.001786
341.040879	1.001757
341.432818	1.000020
341.824694	1.001129
342.216506	1.002257
342.608253	1.000690
342.999937	1.000014
343.391557	1.000246
343.783113	0.999123
344.174605	1.001192
344.566033	1.001414
344.957397	0.999854
345.348697	0.999261
345.739934	0.998896
346.131106	1.000345
346.522215	0.998906
346.913260	1.000310
347.304241	1.000900
347.695159	0.999905
348.086012	0.999123
348.476802	1.000035
348.867528	1.000259
349.258191	0.998705
349.648789	1.000346
350.039324	0.999490
350.429796	1.001811
350.820203	1.000402
351.210548	1.000645
351.600828	0.999988
351.991045	0.999573
352.381198	1.000705
352.771288	0.999378
353.161314	1.000656
353.551276	1.001339
353.941175	1.000558
354.331010	1.000049
354.720782	1.000742
355.110490	1.000466
355.500135	1.001058
355.889717	1.000256
356.279235	0.999845
356.668689	0.999824
357.058080	1.001414
357.447408	1.001345
357.836672	1.000958
358.225873	1.000734
358.615010	1.001718
359.004084	1.001377
359.393095	1.001945
359.782043	1.000079
360.170927	1.001603
360.559748	1.000839
360.948505	1.000959
361.337199	0.999658
361.725830	1.003196
362.114398	1.000352
362.502903	1.000758
362.891344	1.001056
363.279722	1.000054
363.668037	1.000643
364.056289	1.000438
364.444478	1.001248
364.832603	1.000949
365.220665	1.000673
365.608665	0.999886
365.996601	0.999842
366.384474	1.000587
366.772284	1.001705
367.160031	0.998609
367.547715	0.998156
367.935336	1.000124
368.322893	0.999688
368.710388	0.998394
369.097820	0.999738
369.485189	1.000057
369.872495	0.999365
370.259738	0.998782
370.646918	1.000968
371.034035	1.001225
371.421090	0.999214
371.808081	0.999682
372.195010	1.000169
372.581875	0.999815
372.968678	0.999487
373.355418	0.999568
373.742096	1.000400
374.128710	1.002042
374.515262	0.999711
374.901751	1.002050
375.288177	1.000918
375.674540	1.001091
376.060841	0.999062
376.447079	1.000358
376.833254	1.000347
377.219367	1.000900
377.605417	1.000657
377.991404	1.001034
378.377329	1.000523
378.763191	1.001021
379.148991	1.000514
379.534727	1.000537
379.920402	1.000579
380.306013	1.001469
380.691563	1.000494
381.077049	0.999563
381.462474	1.000735
381.847835	1.002040
382.233134	1.000311
382.618371	1.000982
383.003545	1.000359
383.388657	0.999681
383.773706	1.001085
384.158693	1.000302
384.543618	1.000790
384.928480	1.000833
385.313280	1.000414
385.698017	1.000856
386.082692	1.001262
386.467305	1.000517
386.851856	1.000159
387.236344	1.000283
387.620770	1.000508
388.005133	1.000229
388.389435	1.001298
388.773674	1.000126
389.157851	1.000626
389.541965	1.000785
389.926018	1.000010
390.310008	1.001160
390.693936	0.999553
391.077802	1.000568
391.461606	1.000367
391.845348	1.000393
392.229027	1.001704
392.612645	1.000417
392.996200	1.001971
393.379694	1.000045
393.763125	1.001504
394.146494	1.000550
394.529801	1.000917
394.913047	1.002545
395.296230	1.000510
395.679351	1.000889
396.062410	1.000286
396.445408	1.001090
396.828343	1.000275
397.211217	1.000507
397.594028	1.000410
397.976778	0.999822
398.359466	1.000343
398.742092	1.001523
399.124656	1.000696
399.507158	1.000889
399.889598	1.001339
400.271977	1.000730
400.654294	1.001777
401.036549	1.000840
401.418742	1.001180
401.800874	1.000284
402.182944	1.000483
402.564952	0.999706
402.946898	1.002002
403.328783	1.000504
403.710606	1.000389
404.092367	1.000364
404.474067	1.001221
404.855705	1.000871
405.237282	1.001594
405.618797	1.000584
406.000250	1.000315
406.381642	1.001094
406.762972	1.001339
407.144240	1.001803
407.525447	1.001244
407.906593	1.000905
408.287677	1.000863
408.668700	1.001339
409.049661	1.000664
409.430560	1.000980
409.811399	1.000654
410.192176	1.000585
410.572891	1.000191
410.953545	1.000067
411.334138	1.000555
411.714669	1.001724
412.095139	1.000688
412.475547	1.001274
412.855894	1.000894
413.236180	1.001302
413.616405	1.000931
413.996568	1.001484
414.376670	1.000383
414.756711	1.000838
415.136691	1.001142
415.516609	1.000501
415.896466	1.000242
416.276262	0.999831
416.655997	1.000807
417.035670	1.001019
417.415283	1.000761
417.794834	1.000849
418.174324	1.000318
418.553753	1.001618
418.933121	1.000541
419.312428	1.000503
419.691674	1.000963
420.070859	1.001217
420.449983	1.000806
420.829045	1.000456
421.208047	1.001635
421.586988	1.001401
421.965867	1.000846
422.344686	1.001584
422.723444	1.000670
423.102141	1.001096
423.480777	1.000565
423.859352	1.000875
424.237866	1.000993
424.616319	1.000694
424.994712	1.001621
425.373044	1.001669
425.751314	1.001094
426.129524	1.000711
426.507673	1.001079
426.885762	1.001347
427.263789	1.000956
427.641756	1.000009
428.019662	1.001826
428.397508	1.000036
428.775292	0.999401
429.153016	1.001021
429.530679	1.000859
429.908282	1.001467
430.285824	1.000417
430.663305	1.000680
431.040726	1.000298
431.418086	1.002277
431.795385	1.001268
432.172624	1.000284
432.549802	1.001386
432.926920	1.000788
433.303977	1.000506
433.680974	1.001064
434.057910	1.000485
434.434786	1.000538
434.811601	1.001061
435.188355	1.000103
435.565050	1.000044
435.941683	1.000992
436.318257	1.001995
436.694770	1.000098
437.071222	1.000905
437.447614	1.001102
437.823946	1.000750
438.200218	1.000979
438.576429	1.000927
438.952580	1.001493
439.328670	1.001219
439.704700	1.002196
440.080670	1.001587
440.456580	1.000997
440.832429	1.001081
441.208218	1.001501
441.583947	1.001637
441.959616	1.001650
442.335224	1.001393
442.710773	1.001836
443.086261	1.001127
443.461689	1.000996
443.837057	1.000849
444.212365	1.001449
444.587612	1.000950
444.962800	1.001353
445.337927	1.001221
445.712995	1.001692
446.088002	1.001597
446.462949	1.001592
446.837837	1.001252
447.212664	1.001303
447.587431	1.001523
447.962139	1.001394
448.336786	1.001229
448.711374	1.000869
449.085901	1.000460
449.460369	1.001900
449.834776	1.001115
450.209124	1.001334
450.583412	1.001076
450.957640	1.001112
451.331808	1.000800
451.705917	1.001045
452.079965	1.000656
452.453954	1.001560
452.827883	1.001270
453.201752	1.001074
453.575562	1.001802
453.949311	1.001693
454.323001	1.000583
454.696632	1.001681
455.070202	1.000917
455.443713	1.000910
455.817164	1.001223
456.190556	1.001226
456.563888	1.001422
456.937160	1.001060
457.310373	1.000531
457.683526	1.001663
458.056619	1.000577
458.429653	1.001154
458.802628	1.000551
459.175542	1.000995
459.548398	1.001684
459.921194	1.001216
460.293930	1.000594
460.666607	1.000496
461.039224	1.000412
461.411782	1.001074
461.784280	1.000603
462.156719	1.001342
462.529099	1.001561
462.901419	1.001286
463.273680	1.000971
463.645882	1.001123
464.018024	1.001345
464.390106	1.001576
464.762130	1.002183
465.134094	1.001639
465.505999	1.001267
465.877845	1.000738
466.249631	1.001440
466.621358	1.001178
466.993026	1.001240
467.364634	1.001511
467.736184	1.001704
468.107674	1.001466
468.479105	1.000982
468.850477	1.001787
469.221790	1.001348
469.593043	1.001138
469.964238	1.002140
470.335373	1.001452
470.706449	1.001187
471.077467	1.001695
471.448425	1.001536
471.819324	1.001921
472.190164	1.000523
472.560945	1.001486
472.931667	1.000981
473.302330	1.001335
473.672934	1.001596
474.043479	1.001090
474.413965	1.000716
474.784393	1.001428
475.154761	1.000913
475.525070	1.000923
475.895321	1.001734
476.265513	1.001560
476.635645	1.001076
477.005719	1.001041
477.375734	1.000944
477.745691	1.001467
478.115588	1.001477
478.485427	1.001257
478.855207	1.001003
479.224928	1.001602
479.594591	1.001462
479.964194	1.001259
480.333739	1.001757
480.703226	1.000983
481.072653	1.001606
481.442022	1.002048
481.811333	1.000955
482.180584	1.001638
482.549777	1.000868
482.918912	1.001082
483.287988	1.000976
483.657005	1.000905
484.025964	1.001932
484.394864	1.001781
484.763706	1.001956
485.132489	1.001577
485.501213	1.001927
485.869879	1.001177
486.238487	1.001885
486.607036	1.001943
486.975527	1.000405
487.343959	1.001904
487.712333	1.001238
488.080648	1.000995
488.448905	1.000951
488.817104	1.001642
489.185244	1.001765
489.553326	1.001414
489.921350	1.001434
490.289315	1.001663
490.657222	1.001458
491.025070	1.001751
491.392861	1.002228
491.760593	1.001919
492.128267	1.000942
492.495883	1.001087
492.863440	1.001325
493.230939	1.001329
493.598380	1.000792
493.965763	1.001937
494.333088	1.001555
494.700354	1.001562
495.067563	1.001565
495.434713	1.000799
495.801805	1.001844
496.168839	1.001407
496.535815	1.001189
496.902733	1.001707
497.269593	1.001541
497.636395	1.002005
498.003139	1.001068
498.369825	1.001926
498.736453	1.001485
499.103023	1.000574
499.469535	1.001038
499.835989	1.001231
500.202385	1.001565
500.568723	1.001156
500.935003	1.001289
501.301226	1.001616
501.667390	1.001473
502.033497	1.001105
502.399546	1.002689
502.765537	1.000878
503.131470	1.001135
503.497345	1.001457
503.863163	1.002386
504.228923	1.001297
504.594625	1.001854
504.960269	1.001677
505.325856	1.002048
505.691385	1.001785
506.056856	1.001614
506.422270	1.001149
506.787625	1.001397
507.152924	1.001473
507.518164	1.001135
507.883347	1.001766
508.248472	1.001247
508.613540	1.001720
508.978550	1.001664
509.343503	1.001307
509.708398	1.001761
510.073236	1.001539
510.438016	1.001296
510.802738	1.001431
511.167403	1.001818
511.532010	1.001218
511.896561	1.001227
512.261053	1.002337
512.625488	1.001099
512.989866	1.001631
513.354186	1.001450
513.718449	1.000932
514.082655	1.000994
514.446803	1.001786
514.810894	1.001695
515.174927	1.001438
515.538904	1.001198
515.902822	1.001655
516.266684	1.001968
516.630488	1.001950
516.994235	1.001049
517.357925	1.001371
517.721558	1.001842
518.085133	1.000609
518.448651	1.002302
518.812112	1.001206
519.175516	1.000619
519.538863	1.002109
519.902152	1.001133
520.265385	1.000909
520.628560	1.001319
520.991678	1.001112
521.354739	1.001888
521.717743	1.001996
522.080690	1.001574
522.443580	1.000990
522.806413	1.001629
523.169189	1.000838
523.531908	1.000760
523.894569	1.001842
524.257174	1.002238
524.619722	1.001807
524.982213	1.002019
525.344647	1.001804
525.707025	1.001394
526.069345	1.001106
526.431608	1.001150
526.793815	1.001999
527.155964	1.001272
527.518057	1.001388
527.880093	1.002015
528.242072	1.001117
528.603995	1.001459
528.965860	1.001764
529.327669	1.001211
529.689421	1.001121
530.051117	1.001170
530.412755	1.001104
530.774337	1.002169
531.135862	1.001331
531.497331	1.000927
531.858743	1.001367
532.220098	1.001494
532.581396	1.001582
532.942638	1.001491
533.303824	1.001614
533.664953	1.001811
534.026025	1.001374
534.387040	1.001858
534.747999	1.001595
535.108902	1.001314
535.469748	1.000890
535.830537	1.001262
536.191270	1.001420
536.551947	1.001045
536.912567	1.001268
537.273131	1.001667
537.633638	1.000993
537.994089	1.001360
538.354483	1.001166
538.714821	1.002096
539.075103	1.001182
539.435328	1.002225
539.795497	1.001684
540.155609	1.001169
540.515665	1.000970
540.875665	1.001299
541.235609	1.001949
541.595496	1.000484
541.955328	1.001332
542.315102	1.001430
542.674821	1.001511
543.034483	1.000764
543.394090	1.000869
543.753640	1.001866
544.113134	1.002084
544.472571	1.001173
544.831953	1.001851
545.191278	1.001464
545.550548	1.001870
545.909761	1.000221
546.268918	1.001509
546.628019	1.001148
546.987064	1.001033
547.346053	1.001521
547.704986	1.001545
548.063863	1.000888
548.422684	1.001669
548.781449	1.001300
549.140158	1.000971
549.498811	1.002016
549.857408	1.001408
550.215949	1.001201
550.574434	1.001299
550.932864	1.000418
551.291237	1.002049
551.649555	1.001137
552.007817	1.001007
552.366022	1.001260
552.724173	1.001589
553.082267	1.001230
553.440305	1.000918
553.798288	1.001159
554.156215	1.001835
554.514086	1.001250
554.871902	1.000593
555.229661	1.001326
555.587365	1.000772
555.945014	1.001735
556.302606	1.000501
556.660143	1.001197
557.017625	1.000858
557.375050	1.000827
557.732421	1.000913
558.089735	1.001288
558.446994	1.001666
558.804197	1.001777
559.161345	1.001636
559.518437	1.001837
559.875474	1.000462
560.232455	1.001177
560.589381	1.001805
560.946251	1.000233
561.303065	1.001476
561.659825	1.001246
562.016528	1.000924
562.373177	1.001008
562.729770	1.001141
563.086307	1.001521
563.442789	1.001350
563.799216	1.001397
564.155587	1.000600
564.511904	1.000725
564.868164	1.000771
565.224370	1.001355
565.580520	1.001345
565.936615	1.000653
566.292654	1.000899
566.648638	1.001178
567.004567	1.000809
567.360441	1.001192
567.716260	1.001534
568.072023	1.002078
568.427732	1.001415
568.783385	1.000302
569.138982	1.000795
569.494525	1.000116
569.850013	1.001425
570.205445	1.000993
570.560823	1.000674
570.916145	1.000678
571.271412	1.000917
571.626625	1.000955
571.981782	1.000251
572.336884	1.001423
572.691931	1.001099
573.046923	1.000145
573.401860	1.001080
573.756743	1.001249
574.111570	1.001612
574.466342	1.001307
574.821059	1.001803
575.175722	1.000966
575.530330	1.001260
575.884882	1.000846
576.239380	1.001600
576.593823	1.001941
576.948211	1.000420
577.302544	1.001189
577.656823	1.001226
578.011047	1.001218
578.365216	1.001033
578.719330	1.000233
579.073389	1.001924
579.427394	1.000651
579.781344	1.001297
580.135239	1.001456
580.489080	1.001196
580.842866	1.001409
581.196597	1.001245
581.550273	1.000710
581.903895	1.001465
582.257463	1.000472
582.610975	1.001312
582.964434	1.000952
583.317837	1.002415
583.671186	1.000952
584.024481	1.001319
584.377721	1.000923
584.730906	1.001234
585.084037	1.001684
585.437113	1.000970
585.790135	1.000530
586.143103	1.000522
586.496016	1.001809
586.848874	1.000916
587.201679	1.001366
587.554428	1.000802
587.907124	1.001232
588.259765	1.001286
588.612352	1.001620
588.964884	1.001218
589.317362	1.001096
589.669786	1.000689
590.022155	1.001514
590.374470	1.000284
590.726731	1.001470
591.078937	1.000459
591.431090	1.000802
591.783188	1.000582
592.135232	1.000946
592.487222	1.001016
592.839157	1.001528
593.191038	1.001395
593.542866	1.000989
593.894639	1.001149
594.246358	1.000814
594.598022	1.000439
594.949633	1.000705
595.301190	1.000367
595.652692	1.000447
596.004141	1.001779
596.355535	1.001006
596.706876	1.000683
597.058162	1.000983
597.409395	1.000864
597.760573	1.000936
598.111698	1.000714
598.462768	1.001260
598.813785	1.000916
599.164748	1.000818
599.515657	1.000358
599.866511	1.000356
600.217312	1.000629
600.568060	1.001090
600.918753	1.001014
601.269392	1.001720
601.619978	1.001256
601.970510	1.001371
602.320988	1.000913
602.671412	1.000697
603.021783	1.000654
603.372100	1.001300
603.722363	1.000776
604.072572	1.000848
604.422728	1.000574
604.772830	1.000091
605.122878	1.001257
605.472872	1.000908
605.822813	1.000685
606.172701	1.000669
606.522534	1.001244
606.872314	1.001578
607.222041	1.000365
607.571714	1.001066
607.921333	1.000315
608.270899	1.000815
608.620411	1.000938
608.969870	1.000609
609.319276	1.000212
609.668627	1.001560
610.017926	1.000039
610.367171	1.001288
610.716362	1.000463
611.065500	1.000027
611.414585	1.000947
611.763616	1.001051
612.112594	1.000541
612.461518	0.999934
612.810389	1.000702
613.159207	1.000936
613.507971	1.000082
613.856682	1.001441
614.205340	1.001368
614.553945	1.000457
614.902496	1.000242
615.250994	1.000847
615.599439	1.001079
615.947830	1.000729
616.296169	1.000966
616.644454	1.000799
616.992686	1.000419
617.340864	1.000698
617.688990	1.000932
618.037063	1.001540
618.385082	1.000524
618.733048	1.000428
619.080961	1.000575
619.428821	1.001191
619.776628	1.000196
620.124382	1.000945
620.472083	0.999605
620.819731	1.001161
621.167326	0.999648
621.514868	1.000966
621.862357	1.000443
622.209793	1.000882
622.557176	0.999289
622.904506	1.000352
623.251783	1.000229
623.599007	1.000853
623.946179	1.000159
624.293297	1.000794
624.640363	1.000577
624.987376	0.999511
625.334336	1.001570
625.681243	1.000715
626.028097	1.000354
626.374899	1.001397
626.721647	1.000306
627.068343	1.000503
627.414987	1.001106
627.761577	0.999991
628.108115	1.000389
628.454600	1.000916
628.801032	1.000094
629.147412	1.001027
629.493739	1.000053
629.840014	0.999764
630.186236	1.000522
630.532405	1.000126
630.878521	1.000070
631.224585	1.000810
631.570597	1.000432
631.916556	1.000581
632.262462	1.000535
632.608316	1.000207
632.954117	1.000240
633.299866	1.000421
633.645562	1.000687
633.991206	1.001333
634.336797	1.001222
634.682336	1.000444
635.027823	1.000096
635.373257	1.000350
635.718639	1.001138
636.063968	1.000386
636.409245	1.000243
636.754470	1.000087
637.099642	1.001664
637.444762	1.000954
637.789829	1.000629
638.134845	0.999874
638.479808	1.000374
638.824719	1.000247
639.169577	1.000883
639.514383	1.000809
639.859137	1.000315
640.203839	1.000662
640.548489	1.000382
640.893086	1.001126
641.237632	1.001179
641.582125	0.999509
641.926566	0.999313
642.270955	1.000332
642.615292	1.000805
642.959576	1.000723
643.303809	1.000132
643.647990	1.000221
643.992118	0.999887
644.336195	1.001124
644.680219	1.000919
645.024192	1.001074
645.368112	0.999764
645.711981	1.000870
646.055797	1.000982
646.399562	0.999875
646.743274	0.999492
647.086935	1.000648
647.430544	1.000291
647.774101	1.000294
648.117606	1.000709
648.461059	0.999679
648.804460	1.000078
649.147810	0.999718
649.491108	1.000139
649.834354	0.999753
650.177548	1.000788
650.520690	1.000879
650.863781	1.000425
651.206820	1.000542
651.549807	1.000451
651.892742	1.000674
652.235626	1.000418
652.578458	1.000594
652.921238	0.999994
653.263967	1.001055
653.606644	1.001407
653.949269	1.000313
654.291843	1.000505
654.634365	1.000442
654.976836	1.000046
655.319255	1.000146
655.661622	0.999823
656.003938	1.000283
656.346203	1.000362
656.688416	1.000482
657.030577	1.000475
657.372687	1.000061
657.714746	0.999881
658.056753	1.000749
658.398708	1.000633
658.740612	1.001245
659.082465	1.001004
659.424266	1.000726
659.766016	0.998965
660.107715	0.999712
660.449362	0.999667
660.790958	1.000053
661.132503	0.998920
661.473996	0.999682
661.815438	0.999510
662.156829	0.999361
662.498168	1.001003
662.839456	0.999268
663.180693	1.000299
663.521879	1.000287
663.863013	0.999751
664.204097	1.000260
664.545129	0.999787
664.886110	0.999707
665.227040	0.999853
665.567918	0.999548
665.908746	1.000190
666.249522	0.999789
666.590248	1.000101
666.930922	1.000359
667.271545	0.999740
667.612118	0.999854
667.952639	0.999777
668.293109	1.000574
668.633528	1.000341
668.973896	1.000479
669.314213	0.998933
669.654480	0.999813
669.994695	0.999958
670.334859	0.999733
670.674973	0.998909
671.015035	1.000181
671.355047	0.999680
671.695008	1.000912
672.034918	0.999955
672.374777	1.000003
672.714585	0.999593
673.054342	0.999464
673.394049	0.999242
673.733705	0.999136
674.073310	0.999798
674.412864	0.999610
674.752368	0.999037
675.091820	0.999870
675.431223	0.999332
675.770574	0.999143
676.109875	0.999711
676.449125	0.999253
676.788324	0.998641
677.127473	1.000344
677.466571	0.999459
677.805619	0.998759
678.144616	0.999972
678.483562	0.997807
678.822458	0.998869
679.161303	1.000123
679.500098	0.999445
679.838842	1.000568
680.177535	0.999301
680.516179	0.999622
680.854771	0.999488
681.193314	0.999488
681.531805	0.998493
681.870247	0.998182
682.208638	0.998554
682.546978	0.998605
682.885268	0.998723
683.223508	0.998522
683.561697	0.998230
683.899836	0.999563
684.237925	0.999339
684.575963	0.998721
684.913951	0.997484
685.251889	0.999145
685.589776	0.997346
685.927614	0.998468
686.265401	0.997506
686.603137	0.997586
686.940824	0.997524
687.278460	0.997561
687.616046	0.997537
687.953582	0.996961
688.291068	0.997557
688.628504	0.997536
688.965889	0.996482
689.303224	0.997397
689.640510	0.997526
689.977745	0.997189
690.314930	0.997738
690.652065	0.997503
690.989150	0.997520
691.326185	0.997054
691.663170	0.997462
692.000105	0.997487
692.336990	0.997636
692.673825	0.996605
693.010610	0.998966
693.347345	0.995756
693.684030	0.996808
694.020665	0.997576
694.357251	0.997133
694.693786	0.997760
695.030272	0.998273
695.366707	0.997462
695.703093	0.996508
696.039429	0.996593
696.375716	0.996671
696.711952	0.996099
697.048139	0.997613
697.384276	0.996016
697.720363	0.996157
698.056400	0.995714
698.392388	0.995886
698.728326	0.996948
699.064214	0.997700
699.400053	0.997304
699.735842	0.996466
700.071581	0.996301
700.407270	0.996451
700.742910	0.996600
701.078501	0.997122
701.414042	0.997289
701.749533	0.995737
702.084974	0.996509
702.420366	0.994858
702.755709	0.995898
703.091002	0.996228
703.426246	0.995424
703.761440	0.995992
704.096584	0.995436
704.431679	0.994912
704.766725	0.994603
705.101721	0.995779
705.436668	0.995225
705.771565	0.995656
706.106413	0.996204
706.441212	0.995374
706.775961	0.994840
707.110661	0.994917
707.445311	0.994569
707.779913	0.994082
708.114465	0.995052
708.448967	0.994598
708.783421	0.993805
709.117825	0.993980
709.452180	0.994546
709.786485	0.993476
710.120742	0.992084
710.454949	0.993069
710.789107	0.992620
711.123216	0.992259
711.457275	0.993550
711.791286	0.991307
712.125247	0.991531
712.459159	0.990991
712.793023	0.992033
713.126837	0.991485
713.460602	0.990839
713.794318	0.992231
714.127985	0.991590
714.461602	0.992090
714.795171	0.991347
715.128691	0.992031
715.462162	0.992702
715.795584	0.991171
716.128957	0.992051
716.462281	0.992854
716.795556	0.992070
717.128782	0.991841
717.461960	0.992005
717.795088	0.991937
718.128167	0.992943
718.461198	0.992152
718.794180	0.992099
719.127113	0.992742
719.459997	0.993585
719.792833	0.992743
720.125619	0.992885
720.458357	0.992977
720.791046	0.992353
721.123686	0.991311
721.456278	0.992406
721.788821	0.992066
722.121315	0.991815
722.453761	0.992157
722.786158	0.991988
723.118506	0.992051
723.450805	0.991265
723.783056	0.991801
724.115259	0.990813
724.447412	0.991883
724.779518	0.991399
725.111574	0.990398
725.443582	0.991008
725.775542	0.990257
726.107453	0.989967
726.439315	0.990087
726.771129	0.989537
727.102895	0.989469
727.434612	0.988580
727.766281	0.989157
728.097901	0.988459
728.429473	0.989911
728.760996	0.987776
729.092471	0.987924
729.423897	0.989427
729.755276	0.987538
730.086606	0.988100
730.417887	0.987959
730.749120	0.988254
731.080305	0.986717
731.411442	0.986317
731.742530	0.987825
732.073570	0.986902
732.404562	0.985547
732.735506	0.986271
733.066401	0.985877
733.397249	0.987342
733.728048	0.987487
734.058798	0.987374
734.389501	0.987076
734.720156	0.988437
735.050762	0.988647
735.381320	0.987132
735.711831	0.990405
736.042293	0.989238
736.372707	0.987636
736.703073	0.987727
737.033391	0.989309
737.363661	0.988665
737.693883	0.986800
738.024056	0.987693
738.354182	0.988414
738.684260	0.986730
739.014290	0.985871
739.344272	0.987113
739.674207	0.985927
740.004093	0.986179
740.333931	0.985350
740.663722	0.985073
740.993464	0.985525
741.323159	0.984806
741.652806	0.985186
741.982405	0.985456
742.311956	0.984794
742.641460	0.985451
742.970915	0.984826
743.300323	0.985887
743.629683	0.986591
743.958996	0.986296
744.288260	0.986009
744.617477	0.986369
744.946647	0.987578
745.275768	0.986195
745.604842	0.984981
745.933869	0.987700
746.262847	0.986141
746.591778	0.983797
746.920662	0.986886
747.249498	0.986211
747.578286	0.984920
747.907027	0.984117
748.235720	0.985717
748.564365	0.984661
748.892963	0.984010
749.221514	0.983661
749.550017	0.985067
749.878473	0.984108
750.206881	0.984569
750.535242	0.985359
750.863555	0.985525
751.191821	0.985555
751.520039	0.985452
751.848210	0.986268
752.176334	0.984457
752.504411	0.984711
752.832440	0.985046
753.160421	0.986160
753.488356	0.984644
753.816243	0.985466
754.144082	0.984806
754.471875	0.986923
754.799620	0.984922
755.127318	0.984577
755.454969	0.984169
755.782572	0.983939
756.110129	0.984327
756.437638	0.984860
756.765100	0.983948
757.092515	0.983739
757.419882	0.983460
757.747203	0.982942
758.074477	0.983575
758.401703	0.984082
758.728882	0.983276
759.056014	0.982974
759.383099	0.982523
759.710138	0.984837
760.037129	0.984058
760.364073	0.982315
760.690970	0.982311
761.017820	0.984952
761.344623	0.983618
761.671379	0.982257
761.998088	0.980828
762.324751	0.980257
762.651366	0.978030
762.977935	0.974466
763.304456	0.969644
763.630931	0.965949
763.957359	0.968994
764.283740	0.974058
764.610074	0.973214
764.936362	0.974500
765.262602	0.975942
765.588796	0.978108
765.914943	0.981196
766.241044	0.982033
766.567097	0.983136
766.893104	0.982639
767.219064	0.982662
767.544978	0.983408
767.870845	0.986179
768.196665	0.984336
768.522438	0.984484
768.848165	0.984763
769.173846	0.984750
769.499479	0.986743
769.825066	0.985961
770.150607	0.986513
770.476101	0.985086
770.801548	0.985170
771.126949	0.985795
771.452303	0.983950
771.777611	0.986002
772.102872	0.984972
772.428087	0.984599
772.753256	0.986064
773.078378	0.985771
773.403453	0.986882
773.728482	0.988511
774.053465	0.986868
774.378401	0.986851
774.703291	0.988445
775.028135	0.987340
775.352932	0.986919
775.677683	0.987616
776.002388	0.987125
776.327046	0.986598
776.651658	0.986747
776.976224	0.986803
777.300743	0.988391
777.625216	0.988214
777.949643	0.987896
778.274024	0.988643
778.598359	0.987434
778.922647	0.987563
779.246889	0.987644
779.571086	0.989320
779.895236	0.989010
780.219339	0.988277
780.543397	0.988380
780.867409	0.987690
781.191374	0.988359
781.515294	0.987139
781.839167	0.986756
782.162995	0.988867
782.486776	0.988018
782.810511	0.986410
783.134201	0.987332
783.457844	0.987026
783.781441	0.986947
784.104993	0.988427
784.428498	0.989285
784.751958	0.986967
785.075372	0.988986
785.398739	0.988223
785.722061	0.988526
786.045337	0.986218
786.368568	0.988242
786.691752	0.988406
787.014891	0.986383
787.337983	0.985753
787.661030	0.985856
787.984031	0.984335
788.306987	0.982223
788.629897	0.983318
788.952760	0.982861
789.275579	0.981922
789.598351	0.983497
789.921078	0.985789
790.243759	0.984735
790.566395	0.985331
790.888984	0.985997
791.211529	0.987072
791.534027	0.987720
791.856480	0.986647
792.178888	0.988657
792.501249	0.988838
792.823566	0.988345
793.145836	0.987133
793.468062	0.988873
793.790241	0.988521
794.112375	0.987221
794.434464	0.986077
794.756507	0.986843
795.078505	0.988114
795.400457	0.987770
795.722364	0.986795
796.044226	0.983474
796.366042	0.984304
796.687812	0.984767
797.009538	0.985484
797.331218	0.984628
797.652852	0.985398
797.974442	0.985374
798.295986	0.984765
798.617484	0.986586
798.938938	0.986553
799.260346	0.986770
799.581709	0.987298
799.903026	0.987545
800.224299	0.986489
800.545526	0.986777
800.866708	0.988453
801.187845	0.988220
801.508936	0.987814
801.829983	0.988849
802.150984	0.987861
802.471940	0.988801
802.792851	0.988361
803.113717	0.989070
803.434538	0.988308
803.755314	0.988957
804.076045	0.988737
804.396731	0.988807
804.717372	0.989485
805.037967	0.989525
805.358518	0.989443
805.679024	0.989651
805.999485	0.989271
806.319901	0.989240
806.640272	0.988029
806.960598	0.988819
807.280879	0.988684
807.601115	0.989231
807.921306	0.988284
808.241453	0.988107
808.561554	0.988003
808.881611	0.986042
809.201623	0.988288
809.521590	0.987660
809.841513	0.987865
810.161390	0.987986
810.481223	0.988695
810.801011	0.988452
811.120755	0.989881
811.440453	0.987764
811.760107	0.987065
812.079716	0.986572
812.399281	0.988223
812.718801	0.988958
813.038276	0.988460
813.357707	0.987505
813.677093	0.987040
813.996434	0.989198
814.315731	0.988997
814.634983	0.988744
814.954191	0.986988
815.273354	0.988245
815.592473	0.986650
815.911547	0.987986
816.230577	0.986474
816.549562	0.985913
816.868502	0.987258
817.187399	0.986060
817.506250	0.984230
817.825058	0.985768
818.143821	0.985277
818.462539	0.984237
818.781213	0.982179
819.099843	0.981266
819.418429	0.979241
819.736970	0.977405
820.055466	0.974823
820.373919	0.970696
820.692327	0.964619
821.010691	0.962396
821.329011	0.957103
821.647286	0.948200
821.965517	0.939693
822.283704	0.938604
822.601847	0.937035
822.919945	0.932198
823.237999	0.927017
823.556010	0.932121
823.873976	0.937166
824.191897	0.941306
824.509775	0.945684
824.827609	0.953615
825.145398	0.955333
825.463144	0.955517
825.780845	0.954739
826.098502	0.954623
826.416116	0.947951
826.733685	0.945815
827.051210	0.943935
827.368692	0.944073
827.686129	0.945211
828.003522	0.952215
828.320872	0.956670
828.638177	0.963028
828.955439	0.969776
829.272656	0.974206
829.589830	0.976264
829.906960	0.978094
830.224046	0.978883
830.541088	0.981172
830.858086	0.980568
831.175041	0.982133
831.491952	0.982485
831.808819	0.981048
832.125642	0.981790
832.442421	0.978209
832.759157	0.975775
833.075849	0.969517
833.392497	0.963245
833.709101	0.955882
834.025662	0.955220
834.342179	0.958383
834.658653	0.963127
834.975083	0.968692
835.291469	0.971305
835.607811	0.975386
835.924110	0.977711
836.240366	0.980899
836.556578	0.983694
836.872746	0.984575
837.188871	0.985659
837.504952	0.986748
837.820990	0.987905
838.136984	0.987971
838.452935	0.987581
838.768842	0.990123
839.084706	0.988064
839.400526	0.983929
839.716303	0.979524
840.032037	0.976979
840.347727	0.975524
840.663373	0.977480
840.978977	0.978539
841.294537	0.983076
841.610054	0.986147
841.925527	0.987383
842.240957	0.988559
842.556344	0.989977
842.871687	0.991374
843.186987	0.992104
843.502244	0.991429
843.817458	0.991612
844.132629	0.992100
844.447756	0.993871
844.762840	0.992339
845.077881	0.992906
845.392879	0.992712
845.707833	0.993743
846.022745	0.992999
846.337613	0.993789
846.652438	0.995132
846.967221	0.992342
847.281960	0.993986
847.596656	0.994766
847.911309	0.993800
848.225919	0.994674
848.540485	0.993751
848.855009	0.994629
849.169490	0.993336
849.483928	0.994788
849.798323	0.995435
850.112675	0.994910
850.426984	0.994961
850.741251	0.994418
851.055474	0.995299
851.369654	0.992936
851.683792	0.995573
851.997887	0.994269
852.311938	0.996107
852.625947	0.994553
852.939914	0.993649
853.253837	0.994408
853.567718	0.996175
853.881555	0.995156
854.195350	0.993618
854.509103	0.995837
854.822812	0.993992
855.136479	0.993902
855.450103	0.995698
855.763685	0.993506
856.077224	0.992937
856.390720	0.994753
856.704173	0.995091
857.017584	0.994591
857.330953	0.993655
857.644278	0.995341
857.957561	0.994597
858.270802	0.993600
858.584000	0.992768
858.897155	0.992476
859.210268	0.994252
859.523339	0.993703
859.836367	0.994540
860.149352	0.995154
860.462295	0.992420
860.775195	0.994538
861.088054	0.993655
861.400869	0.993352
861.713642	0.993748
862.026373	0.994099
862.339062	0.994416
862.651708	0.993398
862.964312	0.993087
863.276873	0.995374
863.589392	0.993985
863.901869	0.995067
864.214303	0.993324
864.526696	0.993648
864.839045	0.993738
865.151353	0.992348
865.463619	0.992224
865.775842	0.992375
866.088023	0.992241
866.400162	0.992456
866.712258	0.993249
867.024313	0.992449
867.336325	0.991696
867.648296	0.992813
867.960224	0.992682
868.272110	0.992177
868.583954	0.992419
868.895755	0.993651
869.207515	0.992265
869.519233	0.990967
869.830909	0.991498
870.142542	0.991837
870.454134	0.992364
870.765684	0.992220
871.077191	0.989609
871.388657	0.992032
871.700081	0.991292
872.011463	0.990565
872.322803	0.990935
872.634101	0.990131
872.945357	0.991467
873.256571	0.990737
873.567744	0.989892
873.878874	0.989638
874.189963	0.989031
874.501010	0.988237
874.812015	0.989120
875.122979	0.991105
875.433900	0.989570
875.744780	0.989770
876.055618	0.989351
876.366415	0.989324
876.677169	0.988961
876.987882	0.989966
877.298554	0.988917
877.609183	0.986771
877.919771	0.987774
878.230317	0.985855
878.540822	0.986189
878.851285	0.984555
879.161707	0.981059
879.472087	0.979528
879.782425	0.974800
880.092722	0.967737
880.402977	0.959433
880.713191	0.954373
881.023363	0.949470
881.333494	0.947318
881.643583	0.944779
881.953631	0.940360
882.263637	0.940272
882.573602	0.943344
882.883526	0.945545
883.193408	0.947758
883.503248	0.950985
883.813048	0.954283
884.122806	0.960591
884.432522	0.964368
884.742197	0.969810
885.051831	0.970455
885.361424	0.972591
885.670975	0.976684
885.980485	0.978683
886.289954	0.979793
886.599382	0.981964
886.908768	0.983137
887.218113	0.984523
887.527417	0.985358
887.836680	0.986768
888.145901	0.986675
888.455082	0.985877
888.764221	0.987813
889.073319	0.987946
889.382376	0.988025
889.691392	0.987978
890.000366	0.988097
890.309300	0.989609
890.618193	0.988550
890.927044	0.986895
891.235855	0.988101
891.544625	0.987272
891.853353	0.989314
892.162041	0.988744
892.470687	0.986410
892.779293	0.984584
893.087858	0.984783
893.396381	0.984077
893.704864	0.980930
894.013306	0.976054
894.321707	0.968692
894.630068	0.967388
894.938387	0.965225
895.246665	0.962343
895.554903	0.964712
895.863100	0.966815
896.171256	0.970772
896.479371	0.976283
896.787446	0.978662
897.095480	0.981188
897.403473	0.982416
897.711425	0.981882
898.019336	0.984914
898.327207	0.984635
898.635038	0.986627
898.942827	0.985373
899.250576	0.986269
899.558284	0.987671
899.865952	0.989784
900.173579	0.989479
900.481165	0.989161
900.788711	0.989181
901.096216	0.990822
901.403681	0.990519
901.711105	0.991819
902.018489	0.990684
902.325832	0.990844
902.633135	0.990882
902.940397	0.989280
903.247619	0.987074
903.554800	0.980265
903.861941	0.971934
904.169041	0.967850
904.476101	0.963194
904.783121	0.961874
905.090100	0.964647
905.397039	0.966381
905.703938	0.971796
906.010796	0.974683
906.317614	0.980258
906.624391	0.982919
906.931129	0.985588
907.237826	0.987417
907.544483	0.989625
907.851099	0.990119
908.157675	0.992897
908.464211	0.992736
908.770707	0.994061
909.077163	0.993728
909.383578	0.992412
909.689954	0.993039
909.996289	0.992956
910.302584	0.994511
910.608839	0.994817
910.915054	0.994055
911.221229	0.994575
911.527363	0.993928
911.833458	0.993748
912.139513	0.993346
912.445527	0.992123
912.751502	0.991854
913.057436	0.992525
913.363331	0.992897
913.669186	0.991735
913.975000	0.989902
914.280775	0.988284
914.586510	0.988136
914.892205	0.984805
915.197859	0.980478
915.503475	0.973682
915.809050	0.969207
916.114585	0.968620
916.420081	0.967606
916.725536	0.965755
917.030952	0.967192
917.336328	0.969956
917.641665	0.973937
917.946961	0.975714
918.252218	0.979341
918.557435	0.982043
918.862612	0.985266
919.167750	0.986509
919.472848	0.986612
919.777906	0.987762
920.082925	0.989798
920.387904	0.990509
920.692843	0.990527
920.997743	0.990745
921.302603	0.993077
921.607423	0.992232
921.912204	0.993401
922.216946	0.991716
922.521647	0.993357
922.826310	0.993627
923.130932	0.994542
923.435516	0.994263
923.740059	0.996047
924.044564	0.994065
924.349028	0.995389
924.653454	0.996837
924.957840	0.997932
925.262186	0.996476
925.566493	0.995001
925.870761	0.996609
926.174989	0.997483
926.479178	0.998641
926.783328	0.998377
927.087438	0.998200
927.391509	0.997166
927.695541	0.999618
927.999533	0.996927
928.303486	0.996943
928.607400	1.000026
928.911275	0.997839
929.215110	0.998400
929.518906	0.999923
929.822663	0.997654
930.126381	0.998923
930.430060	0.998745
930.733699	0.998843
931.037299	0.997327
931.340861	0.998996
931.644383	0.998067
931.947866	0.997937
932.251309	0.998725
932.554714	0.998075
932.858080	0.998444
933.161407	0.998205
933.464694	0.998452
933.767943	0.997566
934.071153	0.999277
934.374323	0.998593
934.677455	0.999472
934.980548	0.998495
935.283602	0.999385
935.586617	0.998421
935.889593	0.998164
936.192530	0.997672
936.495428	0.997839
936.798287	0.997897
937.101108	0.998628
937.403890	0.998008
937.706632	0.998490
938.009336	0.997112
938.312002	0.998134
938.614628	0.996650
938.917216	0.996853
939.219765	0.995596
939.522275	0.996598
939.824747	0.995987
940.127179	0.995850
940.429573	0.996881
940.731929	0.996409
941.034246	0.995758
941.336524	0.996379
941.638763	0.996533
941.940964	0.997091
942.243126	0.996716
942.545250	0.998001
942.847335	0.997328
943.149381	0.998210
943.451389	0.997160
943.753359	0.997662
944.055290	0.999492
944.357182	0.997758
944.659036	0.996100
944.960851	0.997454
945.262628	0.998735
945.564367	0.999017
945.866067	0.997514
946.167729	0.997629
946.469352	0.998520
946.770937	0.997184
947.072484	0.999163
947.373992	0.998090
947.675462	0.998193
947.976893	0.997631
948.278286	0.997221
948.579641	0.999604
948.880958	0.997992
949.182236	0.998410
949.483476	0.998875
949.784678	0.996679
950.085841	0.998385
950.386967	0.996948
950.688054	0.997964
950.989103	0.999337
951.290114	0.997711
951.591087	0.997911
951.892021	0.997781
952.192917	0.998136
952.493776	0.997410
952.794596	0.998362
953.095378	0.997452
953.396122	0.997911
953.696828	0.996593
953.997496	0.997925
954.298126	0.999104
954.598718	0.997568
954.899272	0.998924
955.199788	0.997141
955.500266	0.998574
955.800706	0.999846
956.101108	1.000278
956.401472	1.000518
956.701798	0.999391
957.002087	0.999500
957.302337	0.998934
957.602550	0.999445
957.902724	0.999304
958.202861	0.999787
958.502960	0.998374
958.803022	0.998868
959.103045	1.001187
959.403031	1.000014
959.702979	0.999662
960.002889	1.000609
960.302762	0.998265
960.602596	0.999420
960.902393	0.998062
961.202153	1.001006
961.501875	1.000077
961.801559	0.999745
962.101205	0.998373
962.400814	0.999392
962.700385	1.000042
962.999918	0.999164
963.299414	0.999838
963.598873	0.998620
963.898293	0.999342
964.197677	0.999413
964.497022	0.998706
964.796331	1.001244
965.095601	1.000419
965.394835	1.000517
965.694030	1.000219
965.993189	0.999676
966.292309	0.999214
966.591393	1.000273
966.890439	1.000120
967.189447	0.999554
967.488419	1.000078
967.787353	0.999147
968.086249	1.000259
968.385108	0.999877
968.683930	1.001394
968.982714	1.000516
969.281462	1.000325
969.580172	0.999280
969.878844	1.000162
970.177480	1.000392
970.476078	1.000565
970.774639	1.000654
971.073162	1.000700
971.371649	1.000490
971.670098	0.999709
971.968510	1.001099
972.266885	0.999301
972.565223	0.998626
972.863524	0.999490
973.161788	0.999980
973.460014	1.001460
973.758204	0.999217
974.056356	0.999402
974.354471	0.998532
974.652550	1.000336
974.950591	1.000548
975.248595	0.999677
975.546563	1.000423
975.844493	1.001050
976.142386	0.999002
976.440243	1.000480
976.738062	1.000057
977.035845	1.000878
977.333590	1.000041
977.631299	1.000625
977.928971	0.999589
978.226606	0.999594
978.524204	0.999160
978.821765	1.001135
979.119290	0.998675
979.416777	0.999740
979.714228	0.999715
980.011642	0.998981
980.309020	0.999633
980.606360	0.999139
980.903664	1.001088
981.200931	0.999237
981.498162	0.998195
981.795356	0.998582
982.092513	0.999857
982.389633	0.999205
982.686717	0.997528
982.983764	0.998679
983.280775	0.997642
983.577749	0.997896
983.874686	0.998664
984.171587	0.998678
984.468451	0.999115
984.765279	0.999439
985.062070	0.998005
985.358824	0.998883
985.655543	0.998739
985.952224	0.998332
986.248869	0.999228
986.545478	1.000772
986.842050	1.002125
987.138586	0.998366
987.435086	1.001597
987.731549	1.001344
988.027975	0.999719
988.324366	1.001384
988.620719	1.000159
988.917037	0.999114
989.213318	1.000253
989.509563	1.001026
989.805772	1.000009
990.101944	1.001053
990.398080	0.999328
990.694180	0.999824
990.990244	1.000367
991.286271	1.000116
991.582262	1.000132
991.878217	1.000382
992.174136	1.000030
992.470019	1.000663
992.765865	1.000522
993.061676	1.001034
993.357450	0.999927
993.653188	0.999881
993.948890	0.998227
994.244556	1.000574
994.540186	1.000240
994.835780	0.999231
995.131337	1.000841
995.426859	0.999987
995.722345	1.000663
996.017795	1.000070
996.313208	0.998863
996.608586	0.999228
996.903928	0.999840
997.199234	0.999821
997.494504	1.000988
997.789738	0.999876
998.084936	1.000747
998.380099	0.999856
998.675225	0.999725
998.970316	1.000882
999.265371	1.001302
999.560390	1.000303
999.855373	1.000968
1000.150320	0.999687
1000.445232	0.999809
1000.740108	1.000147
1001.034948	1.000690
1001.329752	1.001550
1001.624521	1.001249
1001.919254	1.000509
1002.213951	1.000398
1002.508613	1.000835
1002.803239	1.001262
1003.097829	1.000962
1003.392384	1.001558
1003.686903	0.999787
1003.981386	1.001601
1004.275834	1.000798
1004.570246	1.001267
1004.864623	1.000310
1005.158964	1.001407
1005.453270	1.000134
1005.747540	0.999217
1006.041775	1.000365
1006.335974	1.000443
1006.630138	1.001472
1006.924266	1.000714
1007.218359	1.002340
1007.512416	1.000669
1007.806438	1.000763
1008.100425	1.001390
1008.394376	1.000643
1008.688292	1.000247
1008.982172	1.001655
1009.276017	0.999702
1009.569827	1.000433
1009.863602	1.000891
1010.157341	1.001092
1010.451045	1.001013
1010.744714	1.000679
1011.038347	1.000102
1011.331945	1.000265
1011.625508	0.999233
1011.919036	1.000028
1012.212528	1.000227
1012.505986	1.000286
1012.799408	0.999735
1013.092795	1.000773
1013.386147	1.000598
1013.679464	1.000822
1013.972745	0.999389
1014.265992	1.000266
1014.559204	1.000522
1014.852380	1.001077
1015.145521	1.000141
1015.438628	1.000865
1015.731699	1.000241
1016.024736	0.999986
1016.317737	1.000962
1016.610703	0.999540
1016.903635	1.000977
1017.196531	0.999436
1017.489393	1.000656
1017.782219	1.000236
1018.075011	0.999617
1018.367768	1.000554
1018.660490	1.001478
1018.953177	1.001478
1019.245829	1.001478
