Dividing Wavelength (nm)	Counts (n)	Blue Motor Position (mm): 0.000000	Red Motor Position (mm): 49.600000	
326.493990	1.001762
326.888308	1.001762
327.282561	1.001762
327.676750	0.999062
328.070874	0.998855
328.464933	0.999487
328.858929	0.999802
329.252859	1.000360
329.646726	0.999589
330.040528	0.999822
330.434265	0.998867
330.827938	1.000720
331.221547	1.000352
331.615091	0.999436
332.008571	1.000080
332.401986	0.999891
332.795338	0.999912
333.188625	0.997982
333.581847	1.000191
333.975006	1.000666
334.368100	0.999772
334.761129	1.000773
335.154095	1.001025
335.546996	1.000235
335.939833	0.999780
336.332606	1.000147
336.725315	1.000652
337.117960	1.000923
337.510540	0.999588
337.903056	1.001373
338.295508	0.999603
338.687896	1.000087
339.080220	1.000506
339.472480	0.999870
339.864676	1.000486
340.256807	0.999661
340.648875	1.001247
341.040879	1.000261
341.432818	1.000191
341.824694	0.999737
342.216506	1.001495
342.608253	0.999012
342.999937	1.000846
343.391557	1.000322
343.783113	1.000266
344.174605	0.999595
344.566033	1.001059
344.957397	0.998913
345.348697	0.999398
345.739934	1.000122
346.131106	0.999026
346.522215	0.999111
346.913260	0.999888
347.304241	0.999564
347.695159	0.998887
348.086012	0.999377
348.476802	1.000395
348.867528	0.999443
349.258191	0.999232
349.648789	1.000528
350.039324	0.999378
350.429796	0.999898
350.820203	1.000544
351.210548	1.000274
351.600828	0.999386
351.991045	0.999702
352.381198	0.996517
352.771288	1.000171
353.161314	1.000017
353.551276	1.000744
353.941175	0.999641
354.331010	0.999491
354.720782	1.001156
355.110490	0.998773
355.500135	1.000319
355.889717	0.999540
356.279235	0.999767
356.668689	0.999354
357.058080	0.999750
357.447408	1.001181
357.836672	0.999746
358.225873	0.999803
358.615010	1.000325
359.004084	1.000988
359.393095	1.000630
359.782043	1.000530
360.170927	1.001188
360.559748	1.001647
360.948505	0.999100
361.337199	1.001014
361.725830	1.000552
362.114398	1.000095
362.502903	1.001024
362.891344	1.000498
363.279722	0.999542
363.668037	1.000895
364.056289	1.000903
364.444478	1.002423
364.832603	1.000879
365.220665	1.000037
365.608665	1.000259
365.996601	1.000305
366.384474	1.001308
366.772284	0.999037
367.160031	0.998808
367.547715	1.000130
367.935336	1.000026
368.322893	0.999962
368.710388	0.998603
369.097820	1.000701
369.485189	0.999135
369.872495	0.999566
370.259738	0.998598
370.646918	1.001585
371.034035	1.001160
371.421090	0.999876
371.808081	1.000439
372.195010	0.999324
372.581875	1.000715
372.968678	0.999584
373.355418	1.000640
373.742096	0.999723
374.128710	1.000313
374.515262	0.999077
374.901751	0.999950
375.288177	0.999718
375.674540	1.000613
376.060841	0.999442
376.447079	1.001310
376.833254	0.998921
377.219367	0.999496
377.605417	0.999697
377.991404	1.000526
378.377329	0.999224
378.763191	0.999522
379.148991	1.000540
379.534727	1.000217
379.920402	0.999808
380.306013	1.001178
380.691563	1.000777
381.077049	1.000290
381.462474	0.999749
381.847835	1.000397
382.233134	0.999910
382.618371	1.000236
383.003545	1.000275
383.388657	0.999642
383.773706	1.001628
384.158693	1.000921
384.543618	0.999610
384.928480	1.000915
385.313280	0.999808
385.698017	1.001078
386.082692	1.001265
386.467305	1.000252
386.851856	1.000410
387.236344	1.001100
387.620770	0.999560
388.005133	1.001181
388.389435	1.000567
388.773674	1.000166
389.157851	1.000373
389.541965	1.000686
389.926018	1.000626
390.310008	1.001598
390.693936	0.999572
391.077802	1.000871
391.461606	0.999786
391.845348	1.000384
392.229027	1.001637
392.612645	1.001526
392.996200	1.001483
393.379694	1.000689
393.763125	1.001669
394.146494	1.001710
394.529801	1.000367
394.913047	1.001092
395.296230	1.000987
395.679351	1.001013
396.062410	1.000680
396.445408	1.001603
396.828343	1.000395
397.211217	1.000631
397.594028	1.000596
397.976778	0.999669
398.359466	1.000686
398.742092	0.999578
399.124656	1.000237
399.507158	1.000080
399.889598	1.000795
400.271977	1.000386
400.654294	1.001447
401.036549	1.000692
401.418742	1.001458
401.800874	0.999782
402.182944	1.000302
402.564952	0.999428
402.946898	1.001552
403.328783	1.000394
403.710606	1.000516
404.092367	1.000726
404.474067	1.000808
404.855705	1.000338
405.237282	1.001164
405.618797	1.000974
406.000250	0.999830
406.381642	1.001286
406.762972	1.000398
407.144240	1.001831
407.525447	1.000509
407.906593	1.000953
408.287677	1.001539
408.668700	1.000977
409.049661	0.999147
409.430560	1.001034
409.811399	1.000487
410.192176	1.000380
410.572891	1.000286
410.953545	1.000280
411.334138	1.000128
411.714669	1.001586
412.095139	1.000810
412.475547	1.001560
412.855894	1.000741
413.236180	1.000876
413.616405	1.000938
413.996568	1.002051
414.376670	1.000764
414.756711	1.000831
415.136691	1.000805
415.516609	1.000656
415.896466	1.000118
416.276262	1.000073
416.655997	1.001356
417.035670	0.999746
417.415283	1.000918
417.794834	1.000355
418.174324	1.001445
418.553753	1.000951
418.933121	1.001062
419.312428	1.000576
419.691674	1.000718
420.070859	1.000429
420.449983	1.000634
420.829045	1.001159
421.208047	1.001304
421.586988	1.002931
421.965867	1.001037
422.344686	1.001016
422.723444	1.000701
423.102141	1.001213
423.480777	1.001087
423.859352	1.001029
424.237866	1.000223
424.616319	1.000697
424.994712	1.000727
425.373044	1.001327
425.751314	1.000905
426.129524	1.001128
426.507673	1.001024
426.885762	1.001673
427.263789	1.000721
427.641756	1.001227
428.019662	1.001669
428.397508	1.001108
428.775292	0.998967
429.153016	0.999781
429.530679	1.001713
429.908282	1.001585
430.285824	1.000693
430.663305	1.000228
431.040726	1.000478
431.418086	1.002274
431.795385	1.001285
432.172624	1.000748
432.549802	1.000923
432.926920	1.001032
433.303977	1.000717
433.680974	1.001380
434.057910	1.000614
434.434786	1.001373
434.811601	1.000439
435.188355	1.000319
435.565050	1.000155
435.941683	1.000598
436.318257	1.002108
436.694770	1.000204
437.071222	1.001429
437.447614	1.000951
437.823946	1.000695
438.200218	1.001482
438.576429	1.000379
438.952580	1.001651
439.328670	1.000348
439.704700	1.001368
440.080670	1.001060
440.456580	1.000410
440.832429	1.000470
441.208218	1.000947
441.583947	1.000827
441.959616	1.002081
442.335224	1.000216
442.710773	1.001987
443.086261	1.000619
443.461689	1.000949
443.837057	1.001081
444.212365	1.001200
444.587612	1.000441
444.962800	1.000223
445.337927	1.001897
445.712995	1.002061
446.088002	1.001189
446.462949	1.001759
446.837837	1.001767
447.212664	1.002126
447.587431	1.001804
447.962139	1.001014
448.336786	1.000453
448.711374	1.001171
449.085901	1.000421
449.460369	1.001623
449.834776	1.000349
450.209124	1.001215
450.583412	1.000522
450.957640	1.000906
451.331808	1.000275
451.705917	1.000529
452.079965	1.000131
452.453954	1.000521
452.827883	1.001229
453.201752	1.000883
453.575562	1.001577
453.949311	1.001338
454.323001	1.000599
454.696632	1.000661
455.070202	1.001334
455.443713	1.000549
455.817164	1.001215
456.190556	1.000926
456.563888	1.000531
456.937160	1.000819
457.310373	1.000325
457.683526	1.001711
458.056619	1.000760
458.429653	1.001323
458.802628	1.000135
459.175542	1.000646
459.548398	1.000471
459.921194	1.000614
460.293930	1.001116
460.666607	1.000390
461.039224	0.999607
461.411782	1.000687
461.784280	1.000127
462.156719	1.001514
462.529099	1.000530
462.901419	1.001052
463.273680	1.001155
463.645882	1.001084
464.018024	1.000989
464.390106	1.000716
464.762130	1.000968
465.134094	1.000888
465.505999	1.000927
465.877845	1.000628
466.249631	1.001141
466.621358	1.000183
466.993026	1.001040
467.364634	1.000734
467.736184	1.001345
468.107674	1.000845
468.479105	1.000376
468.850477	1.001292
469.221790	1.000748
469.593043	1.001315
469.964238	1.001572
470.335373	1.001142
470.706449	1.001190
471.077467	1.001904
471.448425	1.001146
471.819324	1.001526
472.190164	1.000212
472.560945	1.001075
472.931667	1.000773
473.302330	1.000951
473.672934	1.001341
474.043479	1.001187
474.413965	1.001107
474.784393	1.000914
475.154761	1.001043
475.525070	1.000268
475.895321	1.001238
476.265513	1.001123
476.635645	1.000387
477.005719	1.001479
477.375734	1.000677
477.745691	1.001073
478.115588	1.001303
478.485427	1.001186
478.855207	1.001369
479.224928	1.000928
479.594591	1.000804
479.964194	1.001214
480.333739	1.001032
480.703226	1.001152
481.072653	1.001360
481.442022	1.001304
481.811333	1.000410
482.180584	1.001490
482.549777	1.000818
482.918912	1.000803
483.287988	1.001217
483.657005	1.001356
484.025964	1.001399
484.394864	1.001137
484.763706	1.001520
485.132489	1.001963
485.501213	1.001530
485.869879	1.000998
486.238487	1.001246
486.607036	1.001360
486.975527	1.000246
487.343959	1.000686
487.712333	1.000766
488.080648	1.001151
488.448905	1.001544
488.817104	1.001365
489.185244	1.001538
489.553326	1.001049
489.921350	1.001001
490.289315	1.001327
490.657222	1.001707
491.025070	1.001346
491.392861	1.001787
491.760593	1.001249
492.128267	1.000749
492.495883	1.001632
492.863440	1.001076
493.230939	1.001619
493.598380	1.000847
493.965763	1.001437
494.333088	1.001421
494.700354	1.000386
495.067563	1.001459
495.434713	1.000996
495.801805	1.001919
496.168839	1.000652
496.535815	1.001141
496.902733	1.000871
497.269593	1.000975
497.636395	1.001292
498.003139	1.001187
498.369825	1.001115
498.736453	1.000484
499.103023	1.000476
499.469535	0.999856
499.835989	1.001009
500.202385	1.000932
500.568723	1.001660
500.935003	1.001520
501.301226	1.001479
501.667390	1.001561
502.033497	1.001118
502.399546	1.002527
502.765537	1.000330
503.131470	1.001023
503.497345	1.000556
503.863163	1.001465
504.228923	1.001243
504.594625	1.001428
504.960269	1.001476
505.325856	1.001246
505.691385	1.001487
506.056856	1.000822
506.422270	1.000970
506.787625	1.001282
507.152924	1.001413
507.518164	1.001203
507.883347	1.001101
508.248472	1.001049
508.613540	1.001850
508.978550	1.001461
509.343503	1.001005
509.708398	1.001170
510.073236	1.001335
510.438016	1.001987
510.802738	1.001037
511.167403	1.000982
511.532010	1.000959
511.896561	1.001014
512.261053	1.001977
512.625488	1.001290
512.989866	1.001005
513.354186	1.000753
513.718449	1.001362
514.082655	1.001123
514.446803	1.001220
514.810894	1.001847
515.174927	1.000516
515.538904	1.001096
515.902822	1.001379
516.266684	1.001866
516.630488	1.001112
516.994235	1.000941
517.357925	1.000890
517.721558	1.001392
518.085133	1.000384
518.448651	1.001926
518.812112	1.001476
519.175516	1.000577
519.538863	1.000957
519.902152	1.000896
520.265385	1.001006
520.628560	1.000929
520.991678	1.001059
521.354739	1.001354
521.717743	1.001180
522.080690	1.001725
522.443580	1.000614
522.806413	1.001220
523.169189	1.000629
523.531908	1.000846
523.894569	1.001282
524.257174	1.001652
524.619722	1.001410
524.982213	1.001212
525.344647	1.001915
525.707025	1.000714
526.069345	1.000020
526.431608	1.001100
526.793815	1.001522
527.155964	1.001186
527.518057	1.000806
527.880093	1.001461
528.242072	1.000978
528.603995	1.000920
528.965860	1.001773
529.327669	1.000730
529.689421	1.001117
530.051117	1.001864
530.412755	1.000685
530.774337	1.001286
531.135862	1.001255
531.497331	1.001200
531.858743	1.001315
532.220098	1.001474
532.581396	1.001734
532.942638	1.001653
533.303824	1.000837
533.664953	1.000948
534.026025	1.001314
534.387040	1.000910
534.747999	1.001268
535.108902	1.001308
535.469748	1.001245
535.830537	1.001437
536.191270	1.000665
536.551947	1.000616
536.912567	1.001390
537.273131	1.001356
537.633638	1.000363
537.994089	1.000850
538.354483	1.001208
538.714821	1.001752
539.075103	1.000514
539.435328	1.000730
539.795497	1.001208
540.155609	1.000563
540.515665	1.001094
540.875665	1.000743
541.235609	1.001385
541.595496	1.000685
541.955328	1.000721
542.315102	1.001353
542.674821	1.000964
543.034483	1.000856
543.394090	1.000546
543.753640	1.001889
544.113134	1.001216
544.472571	1.001199
544.831953	1.001100
545.191278	1.000703
545.550548	1.001616
545.909761	1.000710
546.268918	1.001113
546.628019	1.001325
546.987064	1.001062
547.346053	1.000997
547.704986	1.001325
548.063863	1.001869
548.422684	1.001480
548.781449	1.001893
549.140158	1.000902
549.498811	1.001537
549.857408	1.000993
550.215949	1.001303
550.574434	1.000814
550.932864	1.001526
551.291237	1.001677
551.649555	1.001754
552.007817	1.000910
552.366022	1.000906
552.724173	1.001797
553.082267	1.001979
553.440305	1.000800
553.798288	1.001330
554.156215	1.001364
554.514086	1.002310
554.871902	1.000740
555.229661	1.000950
555.587365	1.001928
555.945014	1.001832
556.302606	1.000751
556.660143	1.001382
557.017625	1.000901
557.375050	1.000631
557.732421	1.000810
558.089735	1.000873
558.446994	1.001731
558.804197	1.001211
559.161345	1.001644
559.518437	1.001308
559.875474	1.000828
560.232455	1.000953
560.589381	1.001773
560.946251	1.000118
561.303065	1.000672
561.659825	1.001543
562.016528	1.000812
562.373177	1.001186
562.729770	1.000492
563.086307	1.001121
563.442789	1.000835
563.799216	1.000976
564.155587	1.000089
564.511904	1.001042
564.868164	1.000825
565.224370	1.000950
565.580520	1.001235
565.936615	1.001130
566.292654	1.000641
566.648638	1.000735
567.004567	1.000529
567.360441	1.001380
567.716260	1.001820
568.072023	1.001564
568.427732	1.001084
568.783385	1.001878
569.138982	1.001404
569.494525	1.001116
569.850013	1.000340
570.205445	1.000623
570.560823	1.001245
570.916145	1.001368
571.271412	1.000711
571.626625	1.001275
571.981782	1.000688
572.336884	1.001988
572.691931	1.001442
573.046923	1.000099
573.401860	1.000585
573.756743	1.001474
574.111570	1.001379
574.466342	1.001378
574.821059	1.001317
575.175722	1.000725
575.530330	1.001346
575.884882	1.000455
576.239380	1.001726
576.593823	1.000929
576.948211	1.001016
577.302544	1.000275
577.656823	1.000544
578.011047	1.000883
578.365216	1.000761
578.719330	1.000660
579.073389	1.001101
579.427394	1.000741
579.781344	1.000888
580.135239	1.001001
580.489080	1.001008
580.842866	1.000975
581.196597	1.000707
581.550273	1.000838
581.903895	1.001162
582.257463	1.000407
582.610975	1.000101
582.964434	1.001221
583.317837	1.001605
583.671186	1.001069
584.024481	1.001238
584.377721	1.000841
584.730906	1.001569
585.084037	1.001113
585.437113	1.000249
585.790135	1.000733
586.143103	1.000257
586.496016	1.001789
586.848874	1.000860
587.201679	1.000683
587.554428	1.001048
587.907124	1.000302
588.259765	1.000714
588.612352	1.000928
588.964884	1.001391
589.317362	1.001252
589.669786	1.000660
590.022155	1.000773
590.374470	1.000667
590.726731	1.000338
591.078937	1.000602
591.431090	1.001265
591.783188	1.000108
592.135232	1.000763
592.487222	1.001014
592.839157	1.000743
593.191038	1.001342
593.542866	1.000561
593.894639	1.001417
594.246358	1.000959
594.598022	1.000427
594.949633	1.000663
595.301190	1.000937
595.652692	1.001383
596.004141	1.000890
596.355535	1.000650
596.706876	0.999856
597.058162	1.001128
597.409395	1.000794
597.760573	1.001317
598.111698	1.000724
598.462768	1.000394
598.813785	1.000903
599.164748	1.001222
599.515657	1.000646
599.866511	1.000682
600.217312	1.000096
600.568060	1.000484
600.918753	1.001065
601.269392	1.000812
601.619978	1.000989
601.970510	1.001241
602.320988	1.001117
602.671412	1.000082
603.021783	1.001377
603.372100	1.001803
603.722363	1.001385
604.072572	0.999984
604.422728	1.001165
604.772830	1.000538
605.122878	1.000127
605.472872	1.000664
605.822813	1.000211
606.172701	1.000804
606.522534	1.001546
606.872314	1.000590
607.222041	1.000571
607.571714	1.000922
607.921333	1.000236
608.270899	1.000188
608.620411	1.000500
608.969870	1.000432
609.319276	1.000634
609.668627	1.001555
610.017926	0.999861
610.367171	1.000061
610.716362	0.999724
611.065500	1.000041
611.414585	1.000734
611.763616	1.001554
612.112594	1.000221
612.461518	1.000870
612.810389	1.000668
613.159207	1.000505
613.507971	1.000002
613.856682	1.000816
614.205340	1.000840
614.553945	1.000265
614.902496	1.000467
615.250994	1.000508
615.599439	1.001140
615.947830	1.001098
616.296169	1.000051
616.644454	1.000600
616.992686	1.000864
617.340864	1.000365
617.688990	1.001037
618.037063	1.000720
618.385082	1.001049
618.733048	1.000784
619.080961	1.000640
619.428821	1.001422
619.776628	1.000410
620.124382	0.999746
620.472083	0.999694
620.819731	1.001214
621.167326	1.000282
621.514868	1.000156
621.862357	1.000477
622.209793	1.001042
622.557176	0.999362
622.904506	1.000484
623.251783	0.999573
623.599007	1.000298
623.946179	1.000808
624.293297	1.000566
624.640363	1.000507
624.987376	0.999671
625.334336	1.000464
625.681243	1.000192
626.028097	1.000732
626.374899	1.000648
626.721647	1.000498
627.068343	1.000870
627.414987	1.000815
627.761577	1.000737
628.108115	1.000473
628.454600	1.001338
628.801032	0.999882
629.147412	1.000544
629.493739	1.000146
629.840014	1.000101
630.186236	1.000158
630.532405	1.000203
630.878521	1.001203
631.224585	1.000345
631.570597	1.000194
631.916556	1.000005
632.262462	1.000845
632.608316	1.001218
632.954117	1.000253
633.299866	0.999729
633.645562	1.001243
633.991206	1.000521
634.336797	1.001408
634.682336	1.000550
635.027823	1.000305
635.373257	1.001074
635.718639	1.000753
636.063968	1.000288
636.409245	0.999979
636.754470	1.000602
637.099642	1.001093
637.444762	1.000786
637.789829	1.000095
638.134845	1.000558
638.479808	1.000510
638.824719	1.000688
639.169577	1.000037
639.514383	0.999765
639.859137	0.999559
640.203839	0.999974
640.548489	1.000082
640.893086	1.001068
641.237632	1.000604
641.582125	1.000476
641.926566	0.999821
642.270955	1.000387
642.615292	1.001342
642.959576	0.999802
643.303809	1.000903
643.647990	1.000351
643.992118	1.000020
644.336195	1.001201
644.680219	1.000402
645.024192	1.000403
645.368112	1.000123
645.711981	1.000174
646.055797	1.000298
646.399562	0.999228
646.743274	0.999328
647.086935	1.000293
647.430544	1.000040
647.774101	0.999635
648.117606	1.000417
648.461059	1.000339
648.804460	0.999951
649.147810	0.999861
649.491108	1.000687
649.834354	0.999815
650.177548	1.000874
650.520690	1.000462
650.863781	0.999982
651.206820	1.000562
651.549807	0.999747
651.892742	1.000565
652.235626	1.000065
652.578458	1.000789
652.921238	0.999878
653.263967	1.001256
653.606644	1.000840
653.949269	1.000189
654.291843	0.999724
654.634365	1.000662
654.976836	1.000460
655.319255	1.000620
655.661622	1.001330
656.003938	1.000967
656.346203	1.000321
656.688416	1.000063
657.030577	1.001454
657.372687	0.999817
657.714746	1.000985
658.056753	1.000287
658.398708	1.000529
658.740612	1.000629
659.082465	0.999909
659.424266	1.000414
659.766016	0.999562
660.107715	1.000404
660.449362	0.999588
660.790958	0.999905
661.132503	0.999530
661.473996	0.999860
661.815438	1.000492
662.156829	0.999980
662.498168	1.001727
662.839456	0.999292
663.180693	1.000580
663.521879	1.000813
663.863013	1.000553
664.204097	1.000241
664.545129	1.001178
664.886110	1.000269
665.227040	0.999839
665.567918	0.999719
665.908746	1.000191
666.249522	0.999922
666.590248	1.000170
666.930922	1.000416
667.271545	1.001231
667.612118	1.000239
667.952639	1.000355
668.293109	1.000134
668.633528	1.000735
668.973896	1.000214
669.314213	0.999357
669.654480	1.000433
669.994695	0.999916
670.334859	1.000741
670.674973	0.999716
671.015035	0.999716
671.355047	0.999818
671.695008	1.000388
672.034918	1.000122
672.374777	1.000316
672.714585	0.999891
673.054342	1.000252
673.394049	1.000049
673.733705	0.999241
674.073310	0.999832
674.412864	1.000043
674.752368	0.999994
675.091820	1.001703
675.431223	1.000263
675.770574	0.999594
676.109875	1.001416
676.449125	1.000779
676.788324	0.999960
677.127473	1.000774
677.466571	0.999744
677.805619	1.000038
678.144616	1.001009
678.483562	1.000530
678.822458	1.000429
679.161303	1.001414
679.500098	1.000000
679.838842	1.001608
680.177535	1.000696
680.516179	1.000089
680.854771	1.000895
681.193314	1.000666
681.531805	1.000182
681.870247	0.999753
682.208638	0.999228
682.546978	0.999398
682.885268	0.999829
683.223508	1.000164
683.561697	0.999485
683.899836	1.000515
684.237925	1.000419
684.575963	0.999883
684.913951	0.999925
685.251889	1.000970
685.589776	1.000068
685.927614	1.000030
686.265401	1.000023
686.603137	0.999895
686.940824	0.999977
687.278460	0.999830
687.616046	1.000111
687.953582	1.000123
688.291068	1.000475
688.628504	1.000676
688.965889	0.999489
689.303224	0.999732
689.640510	1.000267
689.977745	1.000783
690.314930	1.000743
690.652065	0.999804
690.989150	1.000686
691.326185	0.999898
691.663170	1.000219
692.000105	1.000330
692.336990	0.999923
692.673825	1.000681
693.010610	1.001031
693.347345	0.999681
693.684030	1.000063
694.020665	1.000346
694.357251	1.000156
694.693786	1.000215
695.030272	1.001679
695.366707	1.000215
695.703093	1.000550
696.039429	0.999944
696.375716	1.000091
696.711952	0.999656
697.048139	1.000281
697.384276	0.999285
697.720363	0.998969
698.056400	0.999482
698.392388	1.000238
698.728326	1.001386
699.064214	1.001603
699.400053	1.000318
699.735842	1.000807
700.071581	1.001170
700.407270	1.001116
700.742910	1.000623
701.078501	0.999964
701.414042	1.001525
701.749533	0.999351
702.084974	0.999463
702.420366	0.999491
702.755709	0.999387
703.091002	1.000198
703.426246	0.999209
703.761440	1.000686
704.096584	1.000133
704.431679	0.999727
704.766725	0.999178
705.101721	0.999801
705.436668	1.000442
705.771565	0.999390
706.106413	1.000688
706.441212	0.999813
706.775961	0.998825
707.110661	1.000409
707.445311	1.000199
707.779913	1.000970
708.114465	1.000500
708.448967	0.999979
708.783421	1.000556
709.117825	1.000800
709.452180	1.001472
709.786485	0.998788
710.120742	1.000387
710.454949	0.999534
710.789107	0.999441
711.123216	0.999413
711.457275	1.001090
711.791286	0.999766
712.125247	1.000110
712.459159	0.999161
712.793023	1.000794
713.126837	1.000420
713.460602	1.000051
713.794318	1.000644
714.127985	0.999921
714.461602	1.000354
714.795171	0.999915
715.128691	0.999627
715.462162	1.000090
715.795584	0.999486
716.128957	1.000121
716.462281	0.999665
716.795556	0.999702
717.128782	0.999217
717.461960	0.999910
717.795088	0.999452
718.128167	1.000201
718.461198	0.999690
718.794180	1.000840
719.127113	1.000885
719.459997	1.001136
719.792833	1.000405
720.125619	0.999885
720.458357	1.001349
720.791046	1.001561
721.123686	1.000566
721.456278	0.999971
721.788821	1.000352
722.121315	1.000282
722.453761	0.999702
722.786158	1.000096
723.118506	1.001136
723.450805	1.000115
723.783056	1.000136
724.115259	0.999650
724.447412	1.001251
724.779518	1.000853
725.111574	0.999941
725.443582	1.000469
725.775542	0.999587
726.107453	1.000640
726.439315	1.000306
726.771129	0.999109
727.102895	0.999480
727.434612	0.998624
727.766281	1.000325
728.097901	1.000152
728.429473	1.001517
728.760996	0.999661
729.092471	0.999855
729.423897	0.999796
729.755276	1.000380
730.086606	0.999891
730.417887	1.000225
730.749120	1.000724
731.080305	0.999652
731.411442	1.000052
731.742530	1.001024
732.073570	0.999812
732.404562	0.999515
732.735506	1.000906
733.066401	1.000150
733.397249	1.000892
733.728048	1.000231
734.058798	1.000724
734.389501	1.000737
734.720156	0.999291
735.050762	1.000409
735.381320	1.000870
735.711831	1.001130
736.042293	1.000748
736.372707	1.000520
736.703073	1.000570
737.033391	1.000990
737.363661	1.000231
737.693883	1.000972
738.024056	1.000347
738.354182	1.000284
738.684260	1.000106
739.014290	1.000157
739.344272	0.999603
739.674207	0.999997
740.004093	0.999996
740.333931	1.000064
740.663722	1.000241
740.993464	0.999787
741.323159	1.000181
741.652806	1.000425
741.982405	1.001145
742.311956	0.999275
742.641460	1.000262
742.970915	0.999885
743.300323	1.000189
743.629683	1.000878
743.958996	1.001089
744.288260	1.000909
744.617477	1.000114
744.946647	1.000718
745.275768	0.999949
745.604842	0.999882
745.933869	0.999690
746.262847	0.998600
746.591778	0.998962
746.920662	1.000542
747.249498	0.999466
747.578286	0.999141
747.907027	1.000231
748.235720	1.001033
748.564365	1.000049
748.892963	1.000446
749.221514	0.999242
749.550017	1.000330
749.878473	0.999412
750.206881	1.000420
750.535242	1.001096
750.863555	1.000544
751.191821	1.001607
751.520039	1.000081
751.848210	1.001124
752.176334	1.000103
752.504411	1.000162
752.832440	0.999625
753.160421	1.000887
753.488356	1.000643
753.816243	1.001431
754.144082	1.000162
754.471875	1.000426
754.799620	1.000534
755.127318	1.000377
755.454969	0.999879
755.782572	0.999725
756.110129	1.000077
756.437638	1.001119
756.765100	0.999885
757.092515	0.999837
757.419882	1.000663
757.747203	1.000151
758.074477	0.999560
758.401703	1.000283
758.728882	0.999812
759.056014	1.000199
759.383099	1.000114
759.710138	0.999425
760.037129	1.000905
760.364073	1.000399
760.690970	1.000120
761.017820	1.001344
761.344623	1.000361
761.671379	1.000173
761.998088	1.000469
762.324751	1.000752
762.651366	1.000496
762.977935	1.000207
763.304456	0.999995
763.630931	0.999444
763.957359	0.999426
764.283740	1.001421
764.610074	1.000388
764.936362	1.000268
765.262602	0.999803
765.588796	1.000130
765.914943	1.000088
766.241044	1.000109
766.567097	1.001215
766.893104	1.000219
767.219064	1.000398
767.544978	0.999945
767.870845	1.000046
768.196665	0.999901
768.522438	0.999974
768.848165	0.999394
769.173846	1.000354
769.499479	1.001025
769.825066	0.999566
770.150607	1.001357
770.476101	1.000093
770.801548	0.998936
771.126949	1.000232
771.452303	0.998694
771.777611	1.000817
772.102872	1.000373
772.428087	0.999907
772.753256	0.999087
773.078378	1.001192
773.403453	1.000678
773.728482	1.000925
774.053465	0.999461
774.378401	1.000691
774.703291	1.000491
775.028135	0.999819
775.352932	1.000413
775.677683	0.999688
776.002388	0.998778
776.327046	0.998829
776.651658	1.000040
776.976224	1.000025
777.300743	1.000465
777.625216	0.999433
777.949643	0.999379
778.274024	1.000326
778.598359	0.999870
778.922647	1.000341
779.246889	1.000323
779.571086	0.999858
779.895236	1.000021
780.219339	0.999701
780.543397	1.000604
780.867409	0.999830
781.191374	1.000810
781.515294	0.999451
781.839167	0.999293
782.162995	0.999978
782.486776	1.000386
782.810511	0.999973
783.134201	0.999670
783.457844	1.000492
783.781441	1.000346
784.104993	0.999099
784.428498	1.000342
784.751958	0.999721
785.075372	1.000373
785.398739	0.999140
785.722061	1.001472
786.045337	0.999823
786.368568	1.000269
786.691752	1.000059
787.014891	0.999556
787.337983	0.999565
787.661030	0.999899
787.984031	1.000929
788.306987	0.999370
788.629897	0.999786
788.952760	0.999245
789.275579	1.000905
789.598351	0.998863
789.921078	1.000661
790.243759	0.999225
790.566395	1.000629
790.888984	0.999514
791.211529	1.000121
791.534027	1.000158
791.856480	1.000218
792.178888	1.000279
792.501249	0.999509
792.823566	0.999993
793.145836	0.999765
793.468062	0.999727
793.790241	0.999803
794.112375	0.999375
794.434464	0.998591
794.756507	0.998867
795.078505	1.001299
795.400457	1.000103
795.722364	1.000983
796.044226	0.999665
796.366042	1.000362
796.687812	0.998791
797.009538	1.001501
797.331218	1.000455
797.652852	1.000865
797.974442	1.000105
798.295986	0.998874
798.617484	1.000593
798.938938	1.001135
799.260346	1.000089
799.581709	1.001318
799.903026	1.000457
800.224299	0.999361
800.545526	1.001219
800.866708	0.999816
801.187845	1.000713
801.508936	1.000950
801.829983	1.001657
802.150984	0.999054
802.471940	0.999994
802.792851	0.999609
803.113717	0.999913
803.434538	1.000226
803.755314	1.000456
804.076045	1.000938
804.396731	0.999171
804.717372	0.999082
805.037967	1.000470
805.358518	1.000676
805.679024	1.000843
805.999485	0.999676
806.319901	1.001307
806.640272	1.000221
806.960598	0.999760
807.280879	0.999828
807.601115	1.001796
807.921306	1.000610
808.241453	0.998837
808.561554	0.999137
808.881611	1.000061
809.201623	1.000614
809.521590	0.999178
809.841513	1.000098
810.161390	0.999515
810.481223	0.999817
810.801011	1.000858
811.120755	0.999973
811.440453	0.999985
811.760107	0.999362
812.079716	0.999856
812.399281	0.999155
812.718801	0.999809
813.038276	0.999986
813.357707	0.999713
813.677093	0.999348
813.996434	1.000115
814.315731	1.000629
814.634983	0.999752
814.954191	0.999244
815.273354	1.001173
815.592473	1.000383
815.911547	1.000907
816.230577	1.000220
816.549562	1.000331
816.868502	1.000302
817.187399	1.000155
817.506250	1.002024
817.825058	1.000041
818.143821	1.000568
818.462539	0.999755
818.781213	1.000102
819.099843	0.998530
819.418429	1.000007
819.736970	0.999645
820.055466	0.999437
820.373919	1.000065
820.692327	0.999760
821.010691	0.999208
821.329011	0.999572
821.647286	0.999396
821.965517	0.998623
822.283704	0.999678
822.601847	1.000434
822.919945	0.999795
823.237999	1.000427
823.556010	1.000460
823.873976	1.000483
824.191897	0.999987
824.509775	1.000789
824.827609	1.000241
825.145398	1.000483
825.463144	1.000548
825.780845	1.001260
826.098502	1.000004
826.416116	0.999438
826.733685	0.999853
827.051210	0.999983
827.368692	0.999256
827.686129	1.000528
828.003522	0.999442
828.320872	0.999403
828.638177	1.000596
828.955439	1.000931
829.272656	1.000885
829.589830	1.000618
829.906960	1.000450
830.224046	0.999396
830.541088	0.999777
830.858086	1.000101
831.175041	1.001143
831.491952	1.001021
831.808819	1.000416
832.125642	1.001491
832.442421	0.998833
832.759157	1.000252
833.075849	0.999942
833.392497	0.999990
833.709101	1.000132
834.025662	1.000306
834.342179	1.000281
834.658653	1.001073
834.975083	1.000936
835.291469	0.999084
835.607811	0.999880
835.924110	0.999127
836.240366	0.999925
836.556578	1.000461
836.872746	1.001411
837.188871	1.000005
837.504952	0.999580
837.820990	1.000676
838.136984	0.999894
838.452935	1.000193
838.768842	1.000560
839.084706	1.000504
839.400526	1.000519
839.716303	1.000302
840.032037	0.999201
840.347727	0.999124
840.663373	1.000504
840.978977	1.000215
841.294537	0.999764
841.610054	1.000057
841.925527	1.000764
842.240957	0.999700
842.556344	0.999155
842.871687	1.000495
843.186987	1.001511
843.502244	0.999414
843.817458	1.000073
844.132629	0.999807
844.447756	1.000805
844.762840	0.999465
845.077881	0.999598
845.392879	1.000457
845.707833	1.000770
846.022745	1.001086
846.337613	1.001122
846.652438	1.000820
846.967221	0.999200
847.281960	0.999265
847.596656	1.001891
847.911309	0.999859
848.225919	0.999662
848.540485	0.999157
848.855009	1.000195
849.169490	0.999880
849.483928	0.998985
849.798323	1.000525
850.112675	1.000149
850.426984	1.000585
850.741251	0.999804
851.055474	0.999181
851.369654	0.999802
851.683792	1.001399
851.997887	1.000162
852.311938	1.000392
852.625947	1.001326
852.939914	0.999449
853.253837	1.000446
853.567718	1.001359
853.881555	1.000015
854.195350	0.999078
854.509103	1.000180
854.822812	1.000659
855.136479	0.998109
855.450103	1.000610
855.763685	0.998848
856.077224	0.998664
856.390720	0.999599
856.704173	1.001658
857.017584	1.000976
857.330953	1.000123
857.644278	0.999777
857.957561	1.000108
858.270802	0.999663
858.584000	1.000259
858.897155	1.000179
859.210268	1.001905
859.523339	0.998946
859.836367	0.999704
860.149352	1.001111
860.462295	0.998639
860.775195	1.000665
861.088054	1.000225
861.400869	0.998744
861.713642	0.999959
862.026373	0.999698
862.339062	1.000570
862.651708	0.999361
862.964312	0.999259
863.276873	0.999592
863.589392	1.000115
863.901869	1.001310
864.214303	1.000675
864.526696	1.000185
864.839045	1.000403
865.151353	1.000113
865.463619	1.000579
865.775842	0.999582
866.088023	1.000492
866.400162	1.000252
866.712258	1.000195
867.024313	0.999693
867.336325	1.000159
867.648296	1.000213
867.960224	1.002335
868.272110	0.998913
868.583954	0.999833
868.895755	1.000186
869.207515	0.999720
869.519233	1.000049
869.830909	0.999939
870.142542	0.999505
870.454134	1.001024
870.765684	1.000491
871.077191	0.998032
871.388657	1.001547
871.700081	0.999387
872.011463	1.000131
872.322803	1.000127
872.634101	0.999792
872.945357	1.000901
873.256571	1.001239
873.567744	1.000694
873.878874	0.999524
874.189963	0.999114
874.501010	0.998893
874.812015	0.999003
875.122979	1.001003
875.433900	1.000812
875.744780	1.000067
876.055618	0.999650
876.366415	1.000192
876.677169	1.000212
876.987882	1.000585
877.298554	1.000257
877.609183	1.001364
877.919771	0.999995
878.230317	1.000299
878.540822	0.999849
878.851285	1.000523
879.161707	1.000889
879.472087	1.000954
879.782425	0.999378
880.092722	0.999799
880.402977	0.999079
880.713191	1.000347
881.023363	1.000905
881.333494	0.999609
881.643583	0.999643
881.953631	0.999697
882.263637	1.000647
882.573602	1.000515
882.883526	1.000584
883.193408	0.999571
883.503248	0.999725
883.813048	0.999541
884.122806	0.999767
884.432522	0.998390
884.742197	1.000297
885.051831	0.999796
885.361424	0.999691
885.670975	0.999311
885.980485	1.000598
886.289954	0.999633
886.599382	1.000989
886.908768	1.000353
887.218113	0.999427
887.527417	1.000516
887.836680	1.001126
888.145901	1.000625
888.455082	0.999805
888.764221	1.000678
889.073319	1.001029
889.382376	0.999868
889.691392	1.001139
890.000366	0.999631
890.309300	1.000696
890.618193	1.000763
890.927044	0.999707
891.235855	1.000132
891.544625	0.999346
891.853353	0.999270
892.162041	0.999997
892.470687	1.000973
892.779293	0.999854
893.087858	1.000559
893.396381	1.000655
893.704864	1.000292
894.013306	1.000284
894.321707	0.999315
894.630068	0.999016
894.938387	1.000485
895.246665	0.999274
895.554903	0.999795
895.863100	1.000725
896.171256	1.000826
896.479371	0.999923
896.787446	0.999265
897.095480	0.999820
897.403473	1.000810
897.711425	0.999585
898.019336	1.001937
898.327207	0.998340
898.635038	1.001305
898.942827	1.000154
899.250576	0.999693
899.558284	0.999499
899.865952	0.999711
900.173579	0.999989
900.481165	0.999660
900.788711	1.000667
901.096216	1.000342
901.403681	0.999790
901.711105	1.000349
902.018489	1.000935
902.325832	1.000884
902.633135	1.000636
902.940397	0.999983
903.247619	1.001114
903.554800	0.999329
903.861941	1.000328
904.169041	1.000639
904.476101	0.999651
904.783121	1.000533
905.090100	1.000664
905.397039	1.001029
905.703938	1.001173
906.010796	1.000129
906.317614	1.000909
906.624391	0.998874
906.931129	1.001026
907.237826	1.000075
907.544483	1.001424
907.851099	0.999637
908.157675	1.000288
908.464211	1.001024
908.770707	1.001298
909.077163	0.999428
909.383578	0.999956
909.689954	0.999328
909.996289	1.000314
910.302584	1.001390
910.608839	0.999883
910.915054	1.000660
911.221229	1.000947
911.527363	0.999823
911.833458	0.998538
912.139513	1.000338
912.445527	0.998499
912.751502	0.999962
913.057436	1.000272
913.363331	0.999795
913.669186	0.999956
913.975000	1.000807
914.280775	1.000219
914.586510	1.000839
914.892205	0.999000
915.197859	1.000281
915.503475	1.000356
915.809050	0.999096
916.114585	0.997768
916.420081	1.000368
916.725536	0.999961
917.030952	1.000350
917.336328	0.998875
917.641665	0.999830
917.946961	0.999076
918.252218	1.000958
918.557435	0.999546
918.862612	1.001013
919.167750	1.000926
919.472848	0.998649
919.777906	1.000345
920.082925	1.001554
920.387904	1.000977
920.692843	1.001207
920.997743	0.999758
921.302603	1.000707
921.607423	0.998711
921.912204	1.000033
922.216946	0.998627
922.521647	0.999248
922.826310	1.000265
923.130932	0.999876
923.435516	0.999573
923.740059	0.999961
924.044564	0.998003
924.349028	0.999314
924.653454	1.000560
924.957840	1.001295
925.262186	1.000942
925.566493	1.000017
925.870761	0.999139
926.174989	1.000548
926.479178	1.001509
926.783328	1.001060
927.087438	1.001239
927.391509	0.999938
927.695541	1.002092
927.999533	0.999979
928.303486	1.000853
928.607400	1.001067
928.911275	0.999186
929.215110	1.000201
929.518906	1.001174
929.822663	0.999837
930.126381	1.001638
930.430060	1.000571
930.733699	0.999266
931.037299	0.999519
931.340861	1.000714
931.644383	0.999768
931.947866	1.000072
932.251309	1.000999
932.554714	1.000609
932.858080	0.999687
933.161407	0.999947
933.464694	1.000737
933.767943	0.999503
934.071153	1.000371
934.374323	0.999935
934.677455	1.001281
934.980548	0.999779
935.283602	0.998649
935.586617	1.000747
935.889593	0.999413
936.192530	0.999098
936.495428	1.000591
936.798287	1.001114
937.101108	1.000740
937.403890	0.999701
937.706632	1.001673
938.009336	0.999935
938.312002	0.999728
938.614628	0.999630
938.917216	1.001026
939.219765	0.997981
939.522275	1.000253
939.824747	1.000215
940.127179	0.998614
940.429573	1.000524
940.731929	0.999590
941.034246	0.999833
941.336524	1.000315
941.638763	0.999544
941.940964	1.001148
942.243126	0.999515
942.545250	1.000184
942.847335	1.000694
943.149381	1.000037
943.451389	0.998608
943.753359	0.999656
944.055290	1.000487
944.357182	1.000185
944.659036	0.998524
944.960851	0.999998
945.262628	0.999147
945.564367	1.000629
945.866067	1.000429
946.167729	1.000267
946.469352	0.999707
946.770937	0.998206
947.072484	1.001358
947.373992	0.999453
947.675462	1.000893
947.976893	1.000661
948.278286	0.999275
948.579641	1.000255
948.880958	1.000284
949.182236	0.999989
949.483476	1.000163
949.784678	0.999231
950.085841	0.999798
950.386967	0.998377
950.688054	1.000767
950.989103	1.000961
951.290114	0.999833
951.591087	1.000672
951.892021	0.999545
952.192917	1.000113
952.493776	0.998711
952.794596	1.000061
953.095378	1.000215
953.396122	1.000788
953.696828	0.998900
953.997496	1.000804
954.298126	1.001525
954.598718	1.000117
954.899272	1.001002
955.199788	0.999432
955.500266	1.000233
955.800706	1.000968
956.101108	1.000118
956.401472	1.001712
956.701798	1.000823
957.002087	0.999396
957.302337	0.999481
957.602550	1.000628
957.902724	0.999731
958.202861	1.000230
958.502960	1.001251
958.803022	0.998444
959.103045	1.000858
959.403031	0.999707
959.702979	0.999580
960.002889	1.000348
960.302762	0.999331
960.602596	1.000565
960.902393	0.998764
961.202153	1.000866
961.501875	1.000808
961.801559	0.999638
962.101205	0.998809
962.400814	1.000325
962.700385	1.000290
962.999918	1.000047
963.299414	1.000857
963.598873	0.997772
963.898293	0.999343
964.197677	0.999493
964.497022	0.998483
964.796331	0.999903
965.095601	0.999456
965.394835	0.999472
965.694030	0.999539
965.993189	0.999052
966.292309	0.999411
966.591393	1.000638
966.890439	1.000528
967.189447	1.000350
967.488419	1.000958
967.787353	0.999373
968.086249	1.000141
968.385108	1.000669
968.683930	1.000981
968.982714	1.000008
969.281462	1.000823
969.580172	0.998414
969.878844	1.000437
970.177480	0.999962
970.476078	1.001140
970.774639	1.000968
971.073162	1.000887
971.371649	0.999551
971.670098	0.999804
971.968510	1.000527
972.266885	0.999988
972.565223	1.001306
972.863524	0.999865
973.161788	0.999727
973.460014	1.000816
973.758204	0.999810
974.056356	1.000256
974.354471	0.998754
974.652550	0.999924
974.950591	1.000103
975.248595	1.000329
975.546563	1.000356
975.844493	1.000854
976.142386	0.999694
976.440243	0.999484
976.738062	0.999973
977.035845	1.001045
977.333590	0.999275
977.631299	1.000496
977.928971	0.998365
978.226606	0.999906
978.524204	0.998595
978.821765	1.001335
979.119290	0.999808
979.416777	1.000041
979.714228	0.999818
980.011642	0.998458
980.309020	0.999230
980.606360	0.999975
980.903664	1.001830
981.200931	0.999723
981.498162	0.997766
981.795356	0.998876
982.092513	0.999629
982.389633	1.000909
982.686717	0.998704
982.983764	0.999600
983.280775	1.000343
983.577749	1.000363
983.874686	1.000680
984.171587	0.999835
984.468451	1.000911
984.765279	1.001036
985.062070	0.999658
985.358824	0.999454
985.655543	0.998712
985.952224	1.000541
986.248869	0.999336
986.545478	1.000812
986.842050	1.000421
987.138586	0.998812
987.435086	0.999550
987.731549	1.001128
988.027975	0.998886
988.324366	0.999742
988.620719	0.999752
988.917037	0.998034
989.213318	1.000532
989.509563	1.000109
989.805772	1.000477
990.101944	0.999788
990.398080	0.998942
990.694180	0.999733
990.990244	0.999474
991.286271	0.999984
991.582262	0.999741
991.878217	1.000594
992.174136	0.999663
992.470019	0.999630
992.765865	1.000556
993.061676	1.000395
993.357450	0.999626
993.653188	0.999501
993.948890	0.999189
994.244556	1.000755
994.540186	0.999770
994.835780	0.998703
995.131337	0.999364
995.426859	0.999458
995.722345	1.001349
996.017795	0.999930
996.313208	1.000235
996.608586	0.999526
996.903928	1.001082
997.199234	1.000053
997.494504	0.999089
997.789738	0.999973
998.084936	0.998964
998.380099	1.000886
998.675225	1.000346
998.970316	1.000463
999.265371	1.001489
999.560390	1.000857
999.855373	1.001021
1000.150320	0.999970
1000.445232	1.000858
1000.740108	1.000817
1001.034948	0.999995
1001.329752	1.000437
1001.624521	1.000585
1001.919254	1.000194
1002.213951	1.000084
1002.508613	0.999215
1002.803239	1.000443
1003.097829	1.000106
1003.392384	1.001328
1003.686903	0.999004
1003.981386	1.000535
1004.275834	0.999650
1004.570246	1.000893
1004.864623	1.000181
1005.158964	0.999877
1005.453270	1.000272
1005.747540	0.998179
1006.041775	0.999449
1006.335974	1.000638
1006.630138	0.999104
1006.924266	1.000137
1007.218359	1.001949
1007.512416	1.000051
1007.806438	1.000379
1008.100425	1.000226
1008.394376	1.000095
1008.688292	0.998970
1008.982172	1.001166
1009.276017	1.000325
1009.569827	1.000425
1009.863602	0.999654
1010.157341	1.000497
1010.451045	0.999231
1010.744714	0.999668
1011.038347	1.000206
1011.331945	0.999419
1011.625508	0.998340
1011.919036	0.999655
1012.212528	1.000125
1012.505986	0.999436
1012.799408	1.000445
1013.092795	1.000180
1013.386147	0.999954
1013.679464	1.000346
1013.972745	0.999532
1014.265992	0.998940
1014.559204	1.000325
1014.852380	1.000676
1015.145521	1.000177
1015.438628	0.999899
1015.731699	1.000677
1016.024736	0.999769
1016.317737	1.000631
1016.610703	1.000411
1016.903635	1.001106
1017.196531	0.999184
1017.489393	1.000422
1017.782219	0.999996
1018.075011	0.999293
1018.367768	1.001006
1018.660490	1.001508
1018.953177	1.001508
1019.245829	1.001508
