Dividing Wavelength (nm)	Counts (n)	Blue Motor Position (mm): 0.000000	Red Motor Position (mm): 49.400000	
326.493990	1.001076
326.888308	1.001076
327.282561	1.001076
327.676750	1.000209
328.070874	1.001156
328.464933	0.999769
328.858929	1.000683
329.252859	1.000506
329.646726	0.999811
330.040528	1.000356
330.434265	1.000600
330.827938	1.001840
331.221547	0.999939
331.615091	1.000718
332.008571	1.000591
332.401986	1.000631
332.795338	1.000971
333.188625	0.998464
333.581847	1.001707
333.975006	0.999097
334.368100	0.999341
334.761129	1.000917
335.154095	1.000854
335.546996	1.000091
335.939833	0.999991
336.332606	1.001286
336.725315	1.002498
337.117960	1.001608
337.510540	1.001811
337.903056	1.001915
338.295508	0.998713
338.687896	1.000133
339.080220	1.002117
339.472480	1.000105
339.864676	1.000889
340.256807	1.000224
340.648875	1.001883
341.040879	1.001057
341.432818	1.000058
341.824694	1.000627
342.216506	1.002162
342.608253	1.001354
342.999937	0.999561
343.391557	1.000311
343.783113	1.000522
344.174605	1.000184
344.566033	1.001290
344.957397	1.001393
345.348697	0.999644
345.739934	1.000556
346.131106	1.000819
346.522215	1.000208
346.913260	1.000547
347.304241	1.000756
347.695159	1.000947
348.086012	0.999623
348.476802	1.000437
348.867528	1.000313
349.258191	0.999030
349.648789	1.000805
350.039324	1.000463
350.429796	1.000777
350.820203	1.001953
351.210548	1.000238
351.600828	1.000933
351.991045	1.000550
352.381198	0.999896
352.771288	1.000585
353.161314	1.000445
353.551276	1.001510
353.941175	1.000900
354.331010	1.000972
354.720782	1.001600
355.110490	0.999542
355.500135	1.000863
355.889717	1.001015
356.279235	1.000339
356.668689	0.999581
357.058080	1.000094
357.447408	1.001996
357.836672	1.000557
358.225873	1.001258
358.615010	1.001668
359.004084	1.000593
359.393095	1.002007
359.782043	1.000597
360.170927	1.000849
360.559748	1.001637
360.948505	1.000190
361.337199	1.001881
361.725830	1.001623
362.114398	1.000714
362.502903	1.000554
362.891344	1.001689
363.279722	0.998929
363.668037	1.001432
364.056289	0.999529
364.444478	1.001494
364.832603	1.001160
365.220665	1.000681
365.608665	0.999270
365.996601	1.000645
366.384474	1.001745
366.772284	1.001000
367.160031	0.999479
367.547715	0.999219
367.935336	1.000488
368.322893	1.000776
368.710388	0.999354
369.097820	1.000088
369.485189	0.999830
369.872495	0.999803
370.259738	0.997926
370.646918	1.001805
371.034035	1.000938
371.421090	1.000180
371.808081	1.000512
372.195010	1.001961
372.581875	1.001015
372.968678	0.999760
373.355418	0.999883
373.742096	0.999476
374.128710	1.001235
374.515262	0.999741
374.901751	1.001404
375.288177	1.001277
375.674540	1.000637
376.060841	1.000180
376.447079	1.000021
376.833254	1.000868
377.219367	1.000745
377.605417	1.000069
377.991404	1.000783
378.377329	0.999468
378.763191	1.000294
379.148991	1.001499
379.534727	1.001463
379.920402	1.000473
380.306013	1.001131
380.691563	1.002001
381.077049	1.000780
381.462474	0.999782
381.847835	1.001457
382.233134	1.000416
382.618371	1.000735
383.003545	1.000892
383.388657	1.000670
383.773706	1.001509
384.158693	1.001382
384.543618	1.000481
384.928480	1.000948
385.313280	1.001685
385.698017	1.001124
386.082692	1.001030
386.467305	1.000690
386.851856	1.000294
387.236344	1.000113
387.620770	0.999319
388.005133	1.000884
388.389435	1.002084
388.773674	1.000173
389.157851	1.000927
389.541965	1.000488
389.926018	1.000462
390.310008	1.001971
390.693936	1.000378
391.077802	1.000334
391.461606	1.000531
391.845348	1.001401
392.229027	1.001090
392.612645	1.000381
392.996200	1.001510
393.379694	1.000304
393.763125	1.002143
394.146494	1.001698
394.529801	0.999583
394.913047	1.001536
395.296230	1.000983
395.679351	1.000937
396.062410	1.000622
396.445408	1.000436
396.828343	1.000818
397.211217	1.000786
397.594028	1.001568
397.976778	1.000206
398.359466	1.000910
398.742092	1.000068
399.124656	0.999991
399.507158	1.001122
399.889598	1.001015
400.271977	1.000870
400.654294	1.001495
401.036549	1.001083
401.418742	1.001567
401.800874	0.999816
402.182944	1.000409
402.564952	0.999932
402.946898	1.001169
403.328783	1.000684
403.710606	1.000778
404.092367	1.000483
404.474067	1.000661
404.855705	1.001280
405.237282	1.001417
405.618797	1.000787
406.000250	1.000259
406.381642	1.000605
406.762972	1.001228
407.144240	1.001902
407.525447	1.001132
407.906593	1.001411
408.287677	1.001444
408.668700	1.001624
409.049661	0.999782
409.430560	1.001306
409.811399	1.000464
410.192176	1.000816
410.572891	1.000594
410.953545	1.001055
411.334138	0.999598
411.714669	1.000826
412.095139	0.999818
412.475547	1.001207
412.855894	1.000729
413.236180	1.001159
413.616405	1.001189
413.996568	1.001533
414.376670	1.000791
414.756711	1.000783
415.136691	1.000854
415.516609	1.001140
415.896466	1.000944
416.276262	0.999572
416.655997	1.001246
417.035670	1.000106
417.415283	1.000425
417.794834	1.000779
418.174324	1.000773
418.553753	1.001076
418.933121	1.000560
419.312428	1.000682
419.691674	1.000722
420.070859	1.001306
420.449983	1.000407
420.829045	1.000932
421.208047	1.001382
421.586988	1.001502
421.965867	1.000699
422.344686	1.000868
422.723444	1.000562
423.102141	1.000905
423.480777	1.000649
423.859352	1.000439
424.237866	1.000533
424.616319	1.001319
424.994712	1.001242
425.373044	1.001390
425.751314	1.000206
426.129524	1.000621
426.507673	1.000731
426.885762	1.001149
427.263789	1.000164
427.641756	1.000489
428.019662	1.001183
428.397508	1.000411
428.775292	1.000136
429.153016	1.000548
429.530679	1.002189
429.908282	1.000738
430.285824	1.000251
430.663305	1.001408
431.040726	1.000329
431.418086	1.002761
431.795385	1.001513
432.172624	1.000377
432.549802	1.000929
432.926920	1.000885
433.303977	1.000748
433.680974	1.001011
434.057910	1.000791
434.434786	1.001861
434.811601	1.001062
435.188355	1.000820
435.565050	1.000442
435.941683	1.000301
436.318257	1.000868
436.694770	1.000647
437.071222	1.000983
437.447614	1.000636
437.823946	1.001033
438.200218	1.000664
438.576429	1.000822
438.952580	1.001545
439.328670	1.000930
439.704700	1.001346
440.080670	1.001356
440.456580	1.001016
440.832429	1.000723
441.208218	1.000837
441.583947	1.001554
441.959616	1.000751
442.335224	1.001112
442.710773	1.001657
443.086261	1.000785
443.461689	1.001056
443.837057	1.000412
444.212365	1.000720
444.587612	1.001313
444.962800	1.000695
445.337927	1.001222
445.712995	1.001000
446.088002	1.001048
446.462949	1.000799
446.837837	1.000779
447.212664	1.001881
447.587431	1.001075
447.962139	1.000862
448.336786	1.000950
448.711374	1.000751
449.085901	1.000733
449.460369	1.001699
449.834776	1.001080
450.209124	1.001146
450.583412	1.000844
450.957640	1.001046
451.331808	0.999955
451.705917	1.001202
452.079965	1.000358
452.453954	1.001002
452.827883	1.000458
453.201752	1.000945
453.575562	1.001082
453.949311	1.001625
454.323001	1.000904
454.696632	1.000126
455.070202	1.000999
455.443713	1.000333
455.817164	1.000568
456.190556	1.000328
456.563888	1.000557
456.937160	1.001413
457.310373	1.001178
457.683526	1.000618
458.056619	1.000935
458.429653	1.000796
458.802628	1.000280
459.175542	1.000824
459.548398	1.001076
459.921194	1.000518
460.293930	1.000531
460.666607	1.000874
461.039224	1.000228
461.411782	1.000795
461.784280	1.000140
462.156719	1.001306
462.529099	1.000649
462.901419	1.000807
463.273680	1.001147
463.645882	1.000479
464.018024	1.001021
464.390106	1.000575
464.762130	1.001851
465.134094	1.000406
465.505999	1.001085
465.877845	1.000649
466.249631	1.001824
466.621358	1.000535
466.993026	1.001086
467.364634	1.000583
467.736184	1.002039
468.107674	1.000557
468.479105	1.000710
468.850477	1.001220
469.221790	1.000691
469.593043	1.001258
469.964238	1.001962
470.335373	1.000515
470.706449	1.000780
471.077467	1.001461
471.448425	1.001371
471.819324	1.001364
472.190164	1.000780
472.560945	1.001096
472.931667	1.001329
473.302330	1.000702
473.672934	1.000867
474.043479	1.000869
474.413965	1.000564
474.784393	1.001410
475.154761	1.000092
475.525070	1.000808
475.895321	1.001040
476.265513	1.001040
476.635645	1.000847
477.005719	1.000943
477.375734	1.000890
477.745691	1.001518
478.115588	1.001230
478.485427	1.001309
478.855207	1.001181
479.224928	1.000891
479.594591	1.000704
479.964194	1.001157
480.333739	1.001813
480.703226	1.000697
481.072653	1.001895
481.442022	1.001766
481.811333	1.000633
482.180584	1.001312
482.549777	1.001131
482.918912	1.001524
483.287988	1.001163
483.657005	1.000822
484.025964	1.001444
484.394864	1.001791
484.763706	1.001342
485.132489	1.000920
485.501213	1.000936
485.869879	1.000961
486.238487	1.001346
486.607036	1.001264
486.975527	1.001224
487.343959	1.001073
487.712333	1.001109
488.080648	1.001080
488.448905	1.001336
488.817104	1.001230
489.185244	1.001283
489.553326	1.001381
489.921350	1.000336
490.289315	1.001410
490.657222	1.001455
491.025070	1.001185
491.392861	1.002198
491.760593	1.001124
492.128267	1.001423
492.495883	1.001087
492.863440	1.001748
493.230939	1.001845
493.598380	1.001177
493.965763	1.000876
494.333088	1.001788
494.700354	1.000990
495.067563	1.001756
495.434713	1.001520
495.801805	1.002029
496.168839	1.001760
496.535815	1.000418
496.902733	1.001167
497.269593	1.000451
497.636395	1.001459
498.003139	1.000499
498.369825	1.002336
498.736453	1.000737
499.103023	1.001096
499.469535	1.000756
499.835989	1.001015
500.202385	1.001091
500.568723	1.001834
500.935003	1.001458
501.301226	1.001525
501.667390	1.001229
502.033497	1.001454
502.399546	1.001514
502.765537	1.000944
503.131470	1.000558
503.497345	1.000531
503.863163	1.002035
504.228923	1.001094
504.594625	1.000949
504.960269	1.001828
505.325856	1.001601
505.691385	1.000902
506.056856	1.001315
506.422270	1.001052
506.787625	1.001422
507.152924	1.000704
507.518164	1.000951
507.883347	1.001252
508.248472	1.001057
508.613540	1.001375
508.978550	1.000902
509.343503	1.000858
509.708398	1.000939
510.073236	1.001364
510.438016	1.001775
510.802738	1.001190
511.167403	1.001635
511.532010	1.001042
511.896561	1.000878
512.261053	1.001614
512.625488	1.001257
512.989866	1.000648
513.354186	1.001160
513.718449	1.001092
514.082655	1.000898
514.446803	1.001188
514.810894	1.001885
515.174927	1.001379
515.538904	1.000891
515.902822	1.000981
516.266684	1.001846
516.630488	1.001866
516.994235	1.000669
517.357925	1.001001
517.721558	1.000886
518.085133	1.000502
518.448651	1.002004
518.812112	1.000478
519.175516	1.001344
519.538863	1.001875
519.902152	1.001087
520.265385	1.000923
520.628560	1.000888
520.991678	1.001565
521.354739	1.001921
521.717743	1.000516
522.080690	1.001527
522.443580	1.000673
522.806413	1.001089
523.169189	1.001115
523.531908	1.000714
523.894569	1.000869
524.257174	1.001596
524.619722	1.001126
524.982213	1.001236
525.344647	1.001492
525.707025	1.000835
526.069345	1.000777
526.431608	1.000191
526.793815	1.000745
527.155964	1.001432
527.518057	1.000949
527.880093	1.001245
528.242072	1.000794
528.603995	1.000893
528.965860	1.001050
529.327669	1.000637
529.689421	1.000502
530.051117	1.001957
530.412755	1.001591
530.774337	1.001460
531.135862	1.001068
531.497331	1.001336
531.858743	1.001413
532.220098	1.000905
532.581396	1.001566
532.942638	1.001769
533.303824	1.001156
533.664953	1.001010
534.026025	1.000790
534.387040	1.000579
534.747999	1.000639
535.108902	1.001410
535.469748	1.001086
535.830537	1.001190
536.191270	1.001946
536.551947	1.000928
536.912567	1.001288
537.273131	1.001780
537.633638	1.000653
537.994089	1.001184
538.354483	1.001000
538.714821	1.001266
539.075103	1.001568
539.435328	1.000781
539.795497	1.001476
540.155609	1.000701
540.515665	1.000960
540.875665	1.001351
541.235609	1.001480
541.595496	1.000325
541.955328	1.000864
542.315102	1.000744
542.674821	1.001089
543.034483	1.001191
543.394090	1.001351
543.753640	1.001461
544.113134	1.001443
544.472571	1.001327
544.831953	1.001173
545.191278	1.001087
545.550548	1.001797
545.909761	1.000243
546.268918	1.001521
546.628019	1.001848
546.987064	1.000999
547.346053	1.001472
547.704986	1.001688
548.063863	1.000768
548.422684	1.001162
548.781449	1.001875
549.140158	1.000682
549.498811	1.001491
549.857408	1.001301
550.215949	1.001203
550.574434	1.001097
550.932864	1.001561
551.291237	1.001529
551.649555	1.000958
552.007817	1.001081
552.366022	1.000848
552.724173	1.001543
553.082267	1.000986
553.440305	1.000910
553.798288	1.000891
554.156215	1.001165
554.514086	1.001347
554.871902	1.000413
555.229661	1.000966
555.587365	1.000377
555.945014	1.002308
556.302606	1.000733
556.660143	1.001392
557.017625	1.000467
557.375050	1.000696
557.732421	1.000828
558.089735	1.001294
558.446994	1.001635
558.804197	1.001559
559.161345	1.001541
559.518437	1.002063
559.875474	1.000334
560.232455	1.000643
560.589381	1.001052
560.946251	1.000823
561.303065	1.001387
561.659825	1.001512
562.016528	1.000959
562.373177	1.001524
562.729770	1.000744
563.086307	1.000704
563.442789	1.001060
563.799216	1.000790
564.155587	1.000399
564.511904	1.000283
564.868164	1.000507
565.224370	1.001334
565.580520	1.000826
565.936615	1.001001
566.292654	1.000692
566.648638	1.000849
567.004567	1.000316
567.360441	1.000997
567.716260	1.001570
568.072023	1.000589
568.427732	1.000636
568.783385	1.001594
569.138982	1.000990
569.494525	1.000558
569.850013	1.000771
570.205445	1.000685
570.560823	1.001076
570.916145	1.000763
571.271412	1.000872
571.626625	1.000765
571.981782	1.000251
572.336884	1.001726
572.691931	1.001538
573.046923	1.000684
573.401860	1.000756
573.756743	1.000878
574.111570	1.001034
574.466342	1.001124
574.821059	1.001223
575.175722	1.000901
575.530330	1.001546
575.884882	1.000992
576.239380	1.001660
576.593823	1.001137
576.948211	1.000659
577.302544	1.000300
577.656823	1.000650
578.011047	1.001230
578.365216	1.001176
578.719330	1.000128
579.073389	1.001715
579.427394	1.000539
579.781344	1.001235
580.135239	1.000739
580.489080	1.000922
580.842866	1.001009
581.196597	1.000615
581.550273	1.000740
581.903895	1.001203
582.257463	1.000390
582.610975	1.000615
582.964434	1.000821
583.317837	1.001676
583.671186	1.000665
584.024481	1.000386
584.377721	1.001301
584.730906	1.000832
585.084037	1.000784
585.437113	1.001075
585.790135	1.000763
586.143103	1.000294
586.496016	1.001366
586.848874	1.001111
587.201679	1.000703
587.554428	1.001062
587.907124	1.000734
588.259765	1.000714
588.612352	1.001310
588.964884	1.001463
589.317362	1.001463
589.669786	1.000547
590.022155	1.000765
590.374470	1.000558
590.726731	1.000101
591.078937	1.000938
591.431090	1.000066
591.783188	1.000364
592.135232	1.000524
592.487222	1.001405
592.839157	1.000100
593.191038	1.000897
593.542866	1.000648
593.894639	1.001081
594.246358	1.000274
594.598022	1.000047
594.949633	1.000695
595.301190	1.000599
595.652692	1.000324
596.004141	1.001456
596.355535	1.000165
596.706876	1.000426
597.058162	1.000672
597.409395	1.001470
597.760573	1.000749
598.111698	1.000960
598.462768	1.000798
598.813785	1.000653
599.164748	1.000614
599.515657	1.000360
599.866511	1.000343
600.217312	1.000490
600.568060	1.000737
600.918753	1.000985
601.269392	1.000849
601.619978	1.001267
601.970510	1.000446
602.320988	1.001034
602.671412	1.000235
603.021783	1.000739
603.372100	1.001849
603.722363	1.001684
604.072572	0.999866
604.422728	1.000733
604.772830	1.000485
605.122878	1.000784
605.472872	1.001219
605.822813	1.000140
606.172701	1.000355
606.522534	1.001340
606.872314	1.000227
607.222041	1.000609
607.571714	1.001098
607.921333	1.000418
608.270899	1.001199
608.620411	1.000350
608.969870	1.001074
609.319276	0.999801
609.668627	1.001720
610.017926	1.000412
610.367171	1.000413
610.716362	1.000072
611.065500	0.999801
611.414585	1.000286
611.763616	1.000366
612.112594	1.000304
612.461518	1.000712
612.810389	1.000281
613.159207	1.000246
613.507971	1.000225
613.856682	1.000814
614.205340	1.000964
614.553945	0.999972
614.902496	1.000480
615.250994	1.000263
615.599439	1.000561
615.947830	1.000785
616.296169	1.001203
616.644454	0.999552
616.992686	1.000955
617.340864	1.001325
617.688990	1.000800
618.037063	1.001113
618.385082	1.000829
618.733048	1.000992
619.080961	1.000477
619.428821	1.001233
619.776628	1.000365
620.124382	1.001103
620.472083	0.999428
620.819731	1.001081
621.167326	1.000265
621.514868	1.000546
621.862357	1.000795
622.209793	1.001276
622.557176	0.999502
622.904506	1.000488
623.251783	0.999590
623.599007	1.000913
623.946179	1.000726
624.293297	1.000464
624.640363	1.000571
624.987376	1.000335
625.334336	1.001227
625.681243	1.000118
626.028097	1.001360
626.374899	1.001344
626.721647	1.000514
627.068343	1.000809
627.414987	0.999678
627.761577	1.000513
628.108115	1.000561
628.454600	1.001121
628.801032	1.000044
629.147412	1.001406
629.493739	0.999952
629.840014	1.000340
630.186236	1.000515
630.532405	1.000803
630.878521	1.000675
631.224585	1.000275
631.570597	1.000255
631.916556	1.000215
632.262462	1.000782
632.608316	1.000911
632.954117	1.000259
633.299866	1.000278
633.645562	1.000385
633.991206	1.000307
634.336797	1.000740
634.682336	1.000378
635.027823	1.001030
635.373257	1.000554
635.718639	1.000306
636.063968	1.000287
636.409245	1.000118
636.754470	1.001091
637.099642	1.000531
637.444762	1.000842
637.789829	1.000302
638.134845	1.000863
638.479808	1.000620
638.824719	1.000789
639.169577	1.000086
639.514383	1.000029
639.859137	1.000322
640.203839	1.000884
640.548489	1.000593
640.893086	1.000565
641.237632	1.001289
641.582125	0.999721
641.926566	1.000151
642.270955	1.000837
642.615292	1.000244
642.959576	1.001227
643.303809	1.000336
643.647990	0.999931
643.992118	1.000002
644.336195	1.000966
644.680219	1.000801
645.024192	1.000767
645.368112	0.999185
645.711981	1.000677
646.055797	1.000670
646.399562	1.000080
646.743274	0.999607
647.086935	1.000445
647.430544	1.000366
647.774101	1.000350
648.117606	0.999833
648.461059	1.000198
648.804460	1.000730
649.147810	0.999721
649.491108	1.000542
649.834354	1.000187
650.177548	1.001186
650.520690	1.000737
650.863781	1.000367
651.206820	1.000695
651.549807	1.000618
651.892742	1.000294
652.235626	1.000680
652.578458	1.000242
652.921238	1.000174
653.263967	1.000803
653.606644	1.000837
653.949269	1.001307
654.291843	1.000324
654.634365	0.999818
654.976836	1.000754
655.319255	1.000675
655.661622	1.000444
656.003938	1.000467
656.346203	1.000680
656.688416	1.000954
657.030577	1.000925
657.372687	1.000609
657.714746	0.999620
658.056753	1.000246
658.398708	1.001011
658.740612	1.000445
659.082465	1.000770
659.424266	1.000588
659.766016	0.999251
660.107715	0.999460
660.449362	0.999932
660.790958	1.000188
661.132503	0.999724
661.473996	1.001398
661.815438	1.000260
662.156829	1.000113
662.498168	1.001058
662.839456	0.999700
663.180693	1.001300
663.521879	1.000829
663.863013	1.002457
664.204097	1.000407
664.545129	1.000489
664.886110	0.999774
665.227040	0.999917
665.567918	0.999980
665.908746	1.000792
666.249522	0.999505
666.590248	0.999926
666.930922	1.000966
667.271545	1.000094
667.612118	1.000588
667.952639	1.000433
668.293109	0.999767
668.633528	1.001277
668.973896	1.000939
669.314213	1.000166
669.654480	1.000387
669.994695	1.000473
670.334859	1.001081
670.674973	0.999808
671.015035	1.000377
671.355047	1.001082
671.695008	1.000955
672.034918	1.000622
672.374777	1.000512
672.714585	1.000384
673.054342	1.000653
673.394049	1.000424
673.733705	0.999100
674.073310	1.000571
674.412864	1.000496
674.752368	1.000074
675.091820	1.001523
675.431223	1.000354
675.770574	1.000221
676.109875	1.000184
676.449125	1.000385
676.788324	1.000207
677.127473	1.001311
677.466571	1.000470
677.805619	1.000205
678.144616	1.000903
678.483562	0.999349
678.822458	0.999738
679.161303	1.000904
679.500098	1.000332
679.838842	1.001192
680.177535	1.000495
680.516179	1.000630
680.854771	1.000420
681.193314	1.000872
681.531805	1.000427
681.870247	0.999913
682.208638	1.000161
682.546978	0.999800
682.885268	1.000904
683.223508	1.000740
683.561697	1.000176
683.899836	1.001335
684.237925	1.000640
684.575963	1.000682
684.913951	0.999508
685.251889	1.001051
685.589776	1.000611
685.927614	1.000514
686.265401	1.000218
686.603137	1.000012
686.940824	1.000616
687.278460	1.000029
687.616046	1.000263
687.953582	1.000709
688.291068	1.000274
688.628504	1.001209
688.965889	1.000000
689.303224	0.999817
689.640510	1.000149
689.977745	1.000561
690.314930	1.001009
690.652065	1.000289
690.989150	1.000789
691.326185	1.000605
691.663170	1.000640
692.000105	1.001089
692.336990	1.000101
692.673825	1.000162
693.010610	1.000882
693.347345	0.999715
693.684030	1.000656
694.020665	1.001165
694.357251	1.000929
694.693786	1.000985
695.030272	1.001975
695.366707	1.000039
695.703093	0.999949
696.039429	1.000472
696.375716	1.000928
696.711952	1.000519
697.048139	1.002016
697.384276	1.000398
697.720363	0.999245
698.056400	0.999909
698.392388	0.999745
698.728326	1.000941
699.064214	1.002059
699.400053	1.001676
699.735842	1.000780
700.071581	1.000946
700.407270	1.000505
700.742910	1.001182
701.078501	1.001135
701.414042	1.000665
701.749533	1.000300
702.084974	0.999474
702.420366	0.999512
702.755709	1.000199
703.091002	1.000985
703.426246	1.000571
703.761440	1.001103
704.096584	1.000605
704.431679	1.000428
704.766725	0.999056
705.101721	1.001041
705.436668	1.000177
705.771565	0.999918
706.106413	1.000258
706.441212	1.000728
706.775961	0.999888
707.110661	1.000599
707.445311	0.999979
707.779913	1.001238
708.114465	1.000167
708.448967	1.000397
708.783421	1.000913
709.117825	1.001110
709.452180	1.001281
709.786485	1.000248
710.120742	0.999507
710.454949	0.999705
710.789107	1.000184
711.123216	0.999322
711.457275	1.001342
711.791286	0.999211
712.125247	1.000876
712.459159	0.999479
712.793023	1.001324
713.126837	1.000814
713.460602	1.000284
713.794318	1.000812
714.127985	1.000309
714.461602	1.000637
714.795171	1.000124
715.128691	1.001310
715.462162	1.001386
715.795584	0.999650
716.128957	1.000787
716.462281	1.000610
716.795556	1.000291
717.128782	1.000168
717.461960	1.000759
717.795088	1.000263
718.128167	1.001163
718.461198	1.001180
718.794180	1.001639
719.127113	1.001008
719.459997	1.001296
719.792833	1.000445
720.125619	1.001123
720.458357	1.001167
720.791046	1.001669
721.123686	1.001080
721.456278	1.000963
721.788821	1.001318
722.121315	1.000033
722.453761	1.001622
722.786158	1.000157
723.118506	1.000777
723.450805	1.000332
723.783056	1.000452
724.115259	1.000585
724.447412	1.000171
724.779518	1.000942
725.111574	1.001161
725.443582	1.000858
725.775542	1.000592
726.107453	1.000997
726.439315	1.000020
726.771129	0.999914
727.102895	1.000852
727.434612	1.000778
727.766281	1.000915
728.097901	1.000529
728.429473	1.001773
728.760996	0.999672
729.092471	0.999098
729.423897	1.000233
729.755276	1.000847
730.086606	1.000485
730.417887	0.999674
730.749120	1.000414
731.080305	1.000178
731.411442	1.000070
731.742530	1.001360
732.073570	1.000089
732.404562	1.000232
732.735506	1.001169
733.066401	1.000164
733.397249	1.001242
733.728048	1.000625
734.058798	1.000433
734.389501	1.000322
734.720156	0.999113
735.050762	1.001350
735.381320	1.000818
735.711831	1.001949
736.042293	1.001123
736.372707	1.000456
736.703073	1.000604
737.033391	1.001523
737.363661	1.000562
737.693883	1.000844
738.024056	1.001274
738.354182	1.000746
738.684260	1.000413
739.014290	0.999997
739.344272	0.999956
739.674207	1.000865
740.004093	1.000513
740.333931	1.000666
740.663722	0.999933
740.993464	1.000218
741.323159	0.999769
741.652806	1.000333
741.982405	1.000805
742.311956	1.000211
742.641460	1.000573
742.970915	1.001188
743.300323	1.001104
743.629683	1.001450
743.958996	1.001746
744.288260	1.000261
744.617477	1.000736
744.946647	1.000532
745.275768	1.000449
745.604842	1.000460
745.933869	1.000573
746.262847	0.999387
746.591778	0.999412
746.920662	1.000696
747.249498	1.000276
747.578286	1.001142
747.907027	0.999321
748.235720	1.000811
748.564365	0.999874
748.892963	1.000421
749.221514	0.999659
749.550017	1.000815
749.878473	0.999900
750.206881	1.000040
750.535242	1.000209
750.863555	1.001464
751.191821	1.001700
751.520039	1.000634
751.848210	1.000268
752.176334	1.000537
752.504411	1.001759
752.832440	1.000929
753.160421	1.000781
753.488356	1.000968
753.816243	1.001731
754.144082	0.999882
754.471875	1.001402
754.799620	1.000855
755.127318	0.999966
755.454969	1.000130
755.782572	0.999967
756.110129	1.000732
756.437638	0.999991
756.765100	1.000664
757.092515	0.999678
757.419882	1.002564
757.747203	1.000550
758.074477	1.000255
758.401703	1.000435
758.728882	1.001031
759.056014	1.000382
759.383099	1.001272
759.710138	1.000855
760.037129	1.001595
760.364073	1.000814
760.690970	1.000171
761.017820	1.001691
761.344623	1.001135
761.671379	1.000766
761.998088	1.000732
762.324751	1.001526
762.651366	1.001465
762.977935	1.000137
763.304456	0.999898
763.630931	1.000755
763.957359	1.000269
764.283740	1.001539
764.610074	1.002191
764.936362	1.000851
765.262602	1.000488
765.588796	1.000922
765.914943	1.002145
766.241044	1.001127
766.567097	1.001370
766.893104	1.000102
767.219064	1.000111
767.544978	1.000770
767.870845	1.001357
768.196665	1.001623
768.522438	1.001150
768.848165	1.000790
769.173846	1.000863
769.499479	1.002327
769.825066	1.000781
770.150607	1.001719
770.476101	1.000413
770.801548	1.000245
771.126949	1.000724
771.452303	0.998415
771.777611	1.002069
772.102872	1.001821
772.428087	1.000387
772.753256	1.000143
773.078378	1.001441
773.403453	1.001235
773.728482	1.001785
774.053465	1.000819
774.378401	1.000838
774.703291	1.000451
775.028135	1.001015
775.352932	1.000725
775.677683	1.000122
776.002388	0.999774
776.327046	0.999686
776.651658	0.999780
776.976224	0.999425
777.300743	1.000913
777.625216	1.000195
777.949643	0.999822
778.274024	1.000188
778.598359	1.000765
778.922647	1.001065
779.246889	1.000119
779.571086	1.000698
779.895236	1.001227
780.219339	1.000526
780.543397	1.001133
780.867409	1.000619
781.191374	1.000501
781.515294	1.001015
781.839167	1.000909
782.162995	1.001562
782.486776	1.000258
782.810511	1.000714
783.134201	0.999827
783.457844	1.000572
783.781441	1.000594
784.104993	1.000815
784.428498	0.999964
784.751958	1.001178
785.075372	1.001143
785.398739	1.001317
785.722061	1.001077
786.045337	1.000538
786.368568	1.001260
786.691752	1.001201
787.014891	1.000000
787.337983	1.000776
787.661030	1.000559
787.984031	1.001586
788.306987	1.000145
788.629897	1.000937
788.952760	0.999663
789.275579	1.000992
789.598351	1.000487
789.921078	1.001611
790.243759	1.000359
790.566395	1.000577
790.888984	1.000567
791.211529	1.000407
791.534027	1.000293
791.856480	1.000531
792.178888	0.999759
792.501249	1.000525
792.823566	1.000171
793.145836	0.999149
793.468062	0.999872
793.790241	1.000026
794.112375	1.000691
794.434464	0.999218
794.756507	1.000575
795.078505	1.002339
795.400457	1.000752
795.722364	1.000036
796.044226	1.000438
796.366042	1.001917
796.687812	0.999741
797.009538	1.001649
797.331218	0.999924
797.652852	1.001827
797.974442	1.000677
798.295986	1.000006
798.617484	1.000856
798.938938	1.000197
799.260346	1.000531
799.581709	1.001695
799.903026	1.001112
800.224299	0.999538
800.545526	1.001462
800.866708	1.000315
801.187845	1.001467
801.508936	1.001308
801.829983	1.001501
802.150984	1.000386
802.471940	1.001045
802.792851	1.000999
803.113717	1.001446
803.434538	1.001191
803.755314	1.001460
804.076045	1.001355
804.396731	1.000752
804.717372	1.000879
805.037967	1.001615
805.358518	1.001388
805.679024	1.001383
805.999485	1.000047
806.319901	1.002282
806.640272	1.000094
806.960598	0.999808
807.280879	1.000972
807.601115	1.001585
807.921306	1.001940
808.241453	0.999833
808.561554	0.999658
808.881611	1.000906
809.201623	1.000731
809.521590	1.001002
809.841513	0.999652
810.161390	1.000848
810.481223	1.000012
810.801011	1.000894
811.120755	1.001892
811.440453	0.999697
811.760107	0.999576
812.079716	0.999553
812.399281	1.000499
812.718801	1.001101
813.038276	1.001291
813.357707	1.001061
813.677093	1.000572
813.996434	1.001519
814.315731	1.001114
814.634983	1.001149
814.954191	0.999838
815.273354	1.000768
815.592473	1.000691
815.911547	1.002337
816.230577	1.000744
816.549562	1.000832
816.868502	1.001699
817.187399	1.000759
817.506250	1.001077
817.825058	1.000794
818.143821	1.001075
818.462539	1.000299
818.781213	1.000545
819.099843	0.999706
819.418429	1.000645
819.736970	1.000984
820.055466	1.000220
820.373919	1.001659
820.692327	1.000829
821.010691	1.001071
821.329011	1.001769
821.647286	1.001129
821.965517	1.000479
822.283704	1.001108
822.601847	1.002512
822.919945	1.002191
823.237999	1.003032
823.556010	1.001049
823.873976	1.001976
824.191897	1.001535
824.509775	1.001709
824.827609	1.001881
825.145398	1.000908
825.463144	1.001265
825.780845	1.002085
826.098502	1.001209
826.416116	1.001019
826.733685	1.002091
827.051210	1.001313
827.368692	1.002137
827.686129	1.000997
828.003522	1.001336
828.320872	0.999890
828.638177	1.002288
828.955439	1.001637
829.272656	1.001564
829.589830	1.002282
829.906960	1.000183
830.224046	1.000028
830.541088	1.000639
830.858086	1.000181
831.175041	1.000345
831.491952	1.000513
831.808819	1.000712
832.125642	1.002203
832.442421	0.999373
832.759157	1.002108
833.075849	1.001141
833.392497	1.001408
833.709101	1.000466
834.025662	1.001657
834.342179	1.001478
834.658653	1.001481
834.975083	1.000619
835.291469	1.000248
835.607811	1.000400
835.924110	0.999839
836.240366	1.001473
836.556578	1.001464
836.872746	1.001490
837.188871	0.999983
837.504952	0.999015
837.820990	1.000851
838.136984	0.999468
838.452935	1.001296
838.768842	1.001219
839.084706	1.000743
839.400526	1.000720
839.716303	1.001168
840.032037	1.000854
840.347727	1.001109
840.663373	1.002055
840.978977	1.000890
841.294537	1.001842
841.610054	1.001460
841.925527	1.000957
842.240957	1.001216
842.556344	0.999921
842.871687	1.000921
843.186987	1.002384
843.502244	0.999768
843.817458	1.001068
844.132629	0.999970
844.447756	1.001618
844.762840	1.000648
845.077881	0.998916
845.392879	1.000423
845.707833	1.001840
846.022745	1.001807
846.337613	1.000808
846.652438	1.001266
846.967221	1.000252
847.281960	0.999226
847.596656	1.001559
847.911309	1.000084
848.225919	1.000659
848.540485	0.999805
848.855009	1.000477
849.169490	1.001368
849.483928	1.000785
849.798323	1.000232
850.112675	1.000117
850.426984	1.001010
850.741251	1.000704
851.055474	1.000019
851.369654	1.000064
851.683792	1.001921
851.997887	1.000419
852.311938	1.001497
852.625947	1.000981
852.939914	1.000309
853.253837	1.000765
853.567718	1.001206
853.881555	1.001873
854.195350	1.000832
854.509103	1.000165
854.822812	1.000518
855.136479	1.000010
855.450103	1.000421
855.763685	0.999532
856.077224	0.999858
856.390720	1.000425
856.704173	1.000971
857.017584	1.000924
857.330953	1.000337
857.644278	1.002331
857.957561	1.001503
858.270802	0.999611
858.584000	1.000104
858.897155	1.000348
859.210268	1.001561
859.523339	1.000020
859.836367	1.000737
860.149352	1.001814
860.462295	1.000868
860.775195	1.001138
861.088054	1.000147
861.400869	1.000631
861.713642	0.999816
862.026373	0.999361
862.339062	1.001654
862.651708	0.999254
862.964312	1.000560
863.276873	1.000840
863.589392	1.001462
863.901869	1.001288
864.214303	1.002206
864.526696	1.001142
864.839045	1.000156
865.151353	1.000306
865.463619	1.001591
865.775842	0.999637
866.088023	1.000018
866.400162	1.000175
866.712258	1.000599
867.024313	1.000547
867.336325	0.999961
867.648296	0.999964
867.960224	1.001314
868.272110	1.000378
868.583954	0.999995
868.895755	1.000189
869.207515	1.000728
869.519233	0.999987
869.830909	1.000652
870.142542	1.000918
870.454134	1.001764
870.765684	1.000384
871.077191	0.999678
871.388657	1.001758
871.700081	0.999870
872.011463	1.000601
872.322803	1.000340
872.634101	1.001316
872.945357	1.000947
873.256571	1.000967
873.567744	1.000863
873.878874	0.999378
874.189963	0.999809
874.501010	0.999825
874.812015	1.000005
875.122979	1.002118
875.433900	1.001458
875.744780	0.999458
876.055618	0.999766
876.366415	0.999829
876.677169	1.001797
876.987882	1.000473
877.298554	1.000841
877.609183	1.000757
877.919771	1.002541
878.230317	1.000238
878.540822	1.000840
878.851285	1.000288
879.161707	1.001360
879.472087	1.001862
879.782425	1.000495
880.092722	1.001092
880.402977	1.001436
880.713191	1.001523
881.023363	1.002114
881.333494	1.001651
881.643583	1.002239
881.953631	1.002382
882.263637	1.002461
882.573602	1.002025
882.883526	1.002482
883.193408	1.001253
883.503248	1.002004
883.813048	1.000592
884.122806	1.000578
884.432522	1.000758
884.742197	1.002798
885.051831	1.001507
885.361424	1.001078
885.670975	1.000688
885.980485	1.000688
886.289954	1.001049
886.599382	1.002989
886.908768	1.000754
887.218113	1.001686
887.527417	1.001087
887.836680	1.001783
888.145901	1.001961
888.455082	1.000757
888.764221	1.001118
889.073319	1.001713
889.382376	1.000657
889.691392	1.001562
890.000366	1.000449
890.309300	1.000788
890.618193	1.001181
890.927044	1.000100
891.235855	1.000427
891.544625	1.000735
891.853353	1.000882
892.162041	1.000928
892.470687	1.000747
892.779293	1.000324
893.087858	1.001195
893.396381	1.001462
893.704864	1.001561
894.013306	1.001329
894.321707	1.000263
894.630068	1.000417
894.938387	1.001068
895.246665	1.001550
895.554903	1.000884
895.863100	1.001559
896.171256	1.000432
896.479371	1.001909
896.787446	1.001719
897.095480	1.000135
897.403473	1.000700
897.711425	1.000721
898.019336	1.002000
898.327207	0.998962
898.635038	1.000789
898.942827	1.000382
899.250576	1.000527
899.558284	0.999352
899.865952	1.000219
900.173579	1.000969
900.481165	1.000616
900.788711	1.001735
901.096216	1.000479
901.403681	0.999844
901.711105	1.002623
902.018489	1.000262
902.325832	1.001176
902.633135	1.001109
902.940397	1.000606
903.247619	1.002626
903.554800	1.001089
903.861941	1.000645
904.169041	1.002161
904.476101	1.001714
904.783121	1.000008
905.090100	1.001822
905.397039	1.002243
905.703938	1.001863
906.010796	1.001453
906.317614	1.002027
906.624391	0.999746
906.931129	0.999476
907.237826	1.001328
907.544483	1.000304
907.851099	1.000776
908.157675	1.001444
908.464211	1.001243
908.770707	1.001249
909.077163	1.000509
909.383578	0.999434
909.689954	1.000484
909.996289	1.001000
910.302584	1.000672
910.608839	1.001345
910.915054	0.999917
911.221229	1.000984
911.527363	1.000599
911.833458	1.000485
912.139513	1.000257
912.445527	0.998944
912.751502	0.999780
913.057436	1.001206
913.363331	1.000379
913.669186	1.002380
913.975000	0.999898
914.280775	1.000359
914.586510	1.000087
914.892205	1.000806
915.197859	1.000441
915.503475	1.000841
915.809050	1.001836
916.114585	0.999887
916.420081	1.000061
916.725536	1.001451
917.030952	1.002002
917.336328	1.000760
917.641665	1.001541
917.946961	1.000713
918.252218	1.000735
918.557435	1.000596
918.862612	1.001995
919.167750	1.001727
919.472848	1.000095
919.777906	1.001075
920.082925	1.000449
920.387904	1.001351
920.692843	1.000572
920.997743	0.999906
921.302603	1.000979
921.607423	0.999599
921.912204	1.000193
922.216946	1.000029
922.521647	1.000740
922.826310	1.000686
923.130932	1.001381
923.435516	1.000446
923.740059	1.000565
924.044564	0.999687
924.349028	1.000294
924.653454	1.001463
924.957840	1.001679
925.262186	1.001056
925.566493	0.999445
925.870761	1.000582
926.174989	1.001203
926.479178	1.001477
926.783328	1.001483
927.087438	1.001192
927.391509	0.999379
927.695541	1.001641
927.999533	1.000171
928.303486	1.000693
928.607400	1.001642
928.911275	1.000878
929.215110	1.000529
929.518906	1.000728
929.822663	0.999195
930.126381	1.001806
930.430060	1.000371
930.733699	1.000905
931.037299	1.000052
931.340861	1.002392
931.644383	1.000719
931.947866	1.000000
932.251309	1.000881
932.554714	1.001013
932.858080	0.999794
933.161407	1.000499
933.464694	1.002542
933.767943	1.000401
934.071153	1.001212
934.374323	1.001673
934.677455	1.000256
934.980548	1.001949
935.283602	0.999802
935.586617	1.001489
935.889593	1.000536
936.192530	1.000544
936.495428	0.999536
936.798287	1.001242
937.101108	1.001223
937.403890	1.000413
937.706632	1.001955
938.009336	1.001077
938.312002	1.001306
938.614628	1.000990
938.917216	1.000975
939.219765	1.000543
939.522275	1.001687
939.824747	1.000809
940.127179	0.999671
940.429573	1.000917
940.731929	0.999697
941.034246	1.000465
941.336524	1.000567
941.638763	1.001855
941.940964	1.001433
942.243126	1.000718
942.545250	1.001372
942.847335	1.001877
943.149381	1.001248
943.451389	0.999865
943.753359	0.999933
944.055290	1.002542
944.357182	1.001037
944.659036	0.998570
944.960851	0.999583
945.262628	1.001312
945.564367	1.001972
945.866067	1.000479
946.167729	1.002281
946.469352	1.000311
946.770937	0.998903
947.072484	1.001161
947.373992	1.000648
947.675462	1.000854
947.976893	1.000399
948.278286	0.999611
948.579641	1.000835
948.880958	1.000291
949.182236	1.000051
949.483476	1.001247
949.784678	0.999010
950.085841	1.000621
950.386967	0.999972
950.688054	1.000269
950.989103	1.000895
951.290114	1.000489
951.591087	0.999876
951.892021	1.000137
952.192917	1.000337
952.493776	1.000402
952.794596	1.000347
953.095378	0.999442
953.396122	0.999972
953.696828	0.999559
953.997496	1.001764
954.298126	1.001229
954.598718	1.001230
954.899272	1.002042
955.199788	0.999250
955.500266	1.001108
955.800706	1.000733
956.101108	1.000390
956.401472	1.000871
956.701798	1.001163
957.002087	0.999728
957.302337	1.000784
957.602550	1.000546
957.902724	1.000893
958.202861	1.000984
958.502960	1.001351
958.803022	0.998809
959.103045	1.000977
959.403031	1.001508
959.702979	0.999302
960.002889	1.000649
960.302762	1.000149
960.602596	1.001330
960.902393	0.999429
961.202153	1.001246
961.501875	1.001323
961.801559	0.999245
962.101205	0.999782
962.400814	1.000375
962.700385	0.999504
962.999918	1.000516
963.299414	1.000527
963.598873	0.999979
963.898293	0.999774
964.197677	0.999921
964.497022	0.999972
964.796331	1.000914
965.095601	1.000283
965.394835	1.000002
965.694030	1.000941
965.993189	1.000718
966.292309	1.000067
966.591393	1.001112
966.890439	1.001668
967.189447	1.000759
967.488419	0.999857
967.787353	1.000519
968.086249	1.000553
968.385108	1.001022
968.683930	1.001230
968.982714	1.000955
969.281462	1.000789
969.580172	1.000000
969.878844	1.001682
970.177480	1.000753
970.476078	1.001019
970.774639	1.000070
971.073162	1.002687
971.371649	0.999910
971.670098	1.000403
971.968510	1.002418
972.266885	0.998849
972.565223	1.000402
972.863524	1.000313
973.161788	0.999352
973.460014	1.003539
973.758204	1.000901
974.056356	1.000982
974.354471	0.999872
974.652550	1.000240
974.950591	1.001353
975.248595	1.000639
975.546563	1.000185
975.844493	1.001130
976.142386	0.999629
976.440243	1.002799
976.738062	1.000556
977.035845	1.001607
977.333590	1.000604
977.631299	1.001723
977.928971	1.000139
978.226606	0.999381
978.524204	0.998757
978.821765	1.001731
979.119290	1.000344
979.416777	0.999902
979.714228	1.001262
980.011642	0.999593
980.309020	1.000898
980.606360	1.000420
980.903664	1.002690
981.200931	0.999522
981.498162	1.000721
981.795356	1.001076
982.092513	0.999750
982.389633	1.002295
982.686717	0.998642
982.983764	1.001502
983.280775	0.999927
983.577749	0.999950
983.874686	1.000807
984.171587	1.000582
984.468451	1.000650
984.765279	1.003107
985.062070	0.999986
985.358824	1.000720
985.655543	0.999431
985.952224	1.000588
986.248869	1.000940
986.545478	0.999896
986.842050	1.001045
987.138586	0.999390
987.435086	1.001050
987.731549	1.001945
988.027975	0.999735
988.324366	1.000189
988.620719	1.000493
988.917037	0.999729
989.213318	1.000506
989.509563	0.999616
989.805772	1.000497
990.101944	1.000306
990.398080	0.999621
990.694180	1.000267
990.990244	1.000992
991.286271	1.000984
991.582262	1.001444
991.878217	1.000580
992.174136	0.999899
992.470019	1.000969
992.765865	0.999750
993.061676	1.000714
993.357450	0.999810
993.653188	0.999989
993.948890	1.000858
994.244556	1.000440
994.540186	1.000751
994.835780	1.000177
995.131337	1.002177
995.426859	1.000592
995.722345	1.001236
996.017795	0.999686
996.313208	1.000511
996.608586	0.999478
996.903928	1.001072
997.199234	0.998820
997.494504	1.000642
997.789738	0.999965
998.084936	1.001137
998.380099	1.001342
998.675225	1.001331
998.970316	1.000870
999.265371	1.001754
999.560390	1.000896
999.855373	1.000730
1000.150320	1.000510
1000.445232	1.000720
1000.740108	0.999573
1001.034948	0.999924
1001.329752	1.001252
1001.624521	1.000412
1001.919254	1.001097
1002.213951	1.000580
1002.508613	0.999543
1002.803239	1.001451
1003.097829	1.001505
1003.392384	1.000668
1003.686903	1.001471
1003.981386	1.001091
1004.275834	1.000478
1004.570246	1.001371
1004.864623	1.000786
1005.158964	1.001265
1005.453270	1.000373
1005.747540	1.000334
1006.041775	1.000296
1006.335974	1.001208
1006.630138	1.001278
1006.924266	1.000348
1007.218359	1.001948
1007.512416	1.000716
1007.806438	1.001572
1008.100425	1.001672
1008.394376	1.000014
1008.688292	1.001148
1008.982172	1.001358
1009.276017	0.999911
1009.569827	1.000627
1009.863602	0.999297
1010.157341	1.001620
1010.451045	1.001169
1010.744714	1.001032
1011.038347	1.001101
1011.331945	1.000531
1011.625508	1.000276
1011.919036	0.999586
1012.212528	0.999779
1012.505986	0.998873
1012.799408	1.001438
1013.092795	1.001632
1013.386147	1.001282
1013.679464	1.000426
1013.972745	0.999544
1014.265992	0.999811
1014.559204	1.000384
1014.852380	1.000335
1015.145521	1.000936
1015.438628	1.000432
1015.731699	0.999776
1016.024736	1.000304
1016.317737	1.000554
1016.610703	1.000665
1016.903635	1.001505
1017.196531	1.000504
1017.489393	1.000867
1017.782219	1.001028
1018.075011	0.999553
1018.367768	1.000715
1018.660490	1.001647
1018.953177	1.001647
1019.245829	1.001647
