Dividing Wavelength (nm)	Counts (n)	Blue Motor Position (mm): 0.000000	Red Motor Position (mm): 48.700000	
326.493990	1.000231
326.888308	1.000231
327.282561	1.000231
327.676750	0.999982
328.070874	0.999806
328.464933	0.999309
328.858929	1.000012
329.252859	0.998286
329.646726	0.999645
330.040528	1.000314
330.434265	0.999807
330.827938	1.000044
331.221547	1.001775
331.615091	0.999917
332.008571	1.000021
332.401986	1.000211
332.795338	1.000567
333.188625	0.998647
333.581847	1.001215
333.975006	1.000368
334.368100	1.000333
334.761129	0.999721
335.154095	1.000703
335.546996	1.000069
335.939833	0.999801
336.332606	0.998863
336.725315	1.001506
337.117960	1.000652
337.510540	1.000107
337.903056	0.999650
338.295508	0.998983
338.687896	1.000491
339.080220	1.000179
339.472480	1.001003
339.864676	1.000095
340.256807	1.000116
340.648875	1.001451
341.040879	1.000656
341.432818	1.000019
341.824694	1.000092
342.216506	1.001370
342.608253	1.000274
342.999937	0.999724
343.391557	1.001119
343.783113	1.000320
344.174605	0.999026
344.566033	1.000939
344.957397	0.999184
345.348697	1.000343
345.739934	0.999953
346.131106	0.999797
346.522215	1.000111
346.913260	1.000082
347.304241	0.999345
347.695159	1.000084
348.086012	1.000145
348.476802	1.001350
348.867528	0.999986
349.258191	0.998555
349.648789	0.999696
350.039324	0.999487
350.429796	0.999918
350.820203	1.000514
351.210548	1.000208
351.600828	0.999672
351.991045	0.999965
352.381198	0.999078
352.771288	0.999056
353.161314	0.999948
353.551276	1.000417
353.941175	0.999682
354.331010	0.999767
354.720782	1.000631
355.110490	0.999780
355.500135	1.000250
355.889717	1.000751
356.279235	0.999507
356.668689	1.000275
357.058080	0.999772
357.447408	1.001910
357.836672	1.000074
358.225873	1.000484
358.615010	1.000308
359.004084	1.001000
359.393095	1.000323
359.782043	1.000231
360.170927	1.002634
360.559748	1.000874
360.948505	1.000240
361.337199	1.000012
361.725830	1.000422
362.114398	0.999468
362.502903	0.999911
362.891344	1.001551
363.279722	0.999475
363.668037	1.001580
364.056289	1.000999
364.444478	1.000727
364.832603	1.000632
365.220665	0.999394
365.608665	1.000590
365.996601	0.998815
366.384474	1.000313
366.772284	0.999085
367.160031	0.999969
367.547715	0.999578
367.935336	1.001000
368.322893	1.000481
368.710388	0.999664
369.097820	0.999878
369.485189	1.000580
369.872495	0.999933
370.259738	0.997926
370.646918	1.001675
371.034035	1.001148
371.421090	0.999749
371.808081	1.000284
372.195010	1.000485
372.581875	1.001123
372.968678	1.000155
373.355418	1.001089
373.742096	0.999701
374.128710	1.001364
374.515262	0.999881
374.901751	1.000124
375.288177	1.000424
375.674540	1.000089
376.060841	0.999178
376.447079	0.999535
376.833254	1.000569
377.219367	1.000668
377.605417	1.000658
377.991404	1.000212
378.377329	0.999743
378.763191	1.000198
379.148991	1.001341
379.534727	1.000560
379.920402	1.000473
380.306013	1.000736
380.691563	1.000582
381.077049	1.000764
381.462474	1.000323
381.847835	1.000564
382.233134	1.000169
382.618371	1.000616
383.003545	1.000626
383.388657	1.000527
383.773706	1.001610
384.158693	1.000482
384.543618	1.000785
384.928480	1.000758
385.313280	1.000261
385.698017	1.001139
386.082692	1.000973
386.467305	1.000266
386.851856	0.999958
387.236344	0.999692
387.620770	0.998767
388.005133	1.000624
388.389435	1.001973
388.773674	1.000538
389.157851	1.001125
389.541965	1.001269
389.926018	1.000388
390.310008	1.000620
390.693936	1.000153
391.077802	1.001104
391.461606	1.001194
391.845348	1.000595
392.229027	1.001511
392.612645	1.001714
392.996200	1.002398
393.379694	1.000523
393.763125	1.001560
394.146494	1.000835
394.529801	0.999536
394.913047	1.001433
395.296230	1.001220
395.679351	1.000924
396.062410	1.000366
396.445408	1.000826
396.828343	0.999929
397.211217	1.000554
397.594028	1.002022
397.976778	1.000776
398.359466	1.000505
398.742092	1.000026
399.124656	0.999978
399.507158	1.000842
399.889598	1.002010
400.271977	1.000375
400.654294	1.001605
401.036549	1.001591
401.418742	1.001258
401.800874	0.999885
402.182944	1.000502
402.564952	1.000124
402.946898	1.001037
403.328783	1.001717
403.710606	1.000571
404.092367	1.001065
404.474067	1.000663
404.855705	0.999736
405.237282	1.001006
405.618797	0.999924
406.000250	1.000459
406.381642	1.000642
406.762972	1.000322
407.144240	1.001328
407.525447	1.001177
407.906593	1.000957
408.287677	1.001316
408.668700	1.001230
409.049661	1.000332
409.430560	1.000609
409.811399	1.000606
410.192176	1.000277
410.572891	1.001103
410.953545	1.000953
411.334138	0.999713
411.714669	1.000989
412.095139	0.999776
412.475547	1.001041
412.855894	1.000933
413.236180	1.001189
413.616405	1.000535
413.996568	1.001968
414.376670	1.000921
414.756711	1.000772
415.136691	1.000374
415.516609	1.000785
415.896466	1.000234
416.276262	0.999438
416.655997	1.000130
417.035670	1.000266
417.415283	1.000598
417.794834	1.000813
418.174324	1.000009
418.553753	1.001018
418.933121	1.000978
419.312428	1.000645
419.691674	1.001671
420.070859	1.002048
420.449983	1.000365
420.829045	1.001392
421.208047	1.001397
421.586988	1.001877
421.965867	1.000908
422.344686	1.001552
422.723444	1.001266
423.102141	1.001090
423.480777	1.001869
423.859352	1.001483
424.237866	1.000104
424.616319	1.001474
424.994712	1.001568
425.373044	1.001611
425.751314	1.001043
426.129524	1.000938
426.507673	1.001163
426.885762	1.001196
427.263789	1.000434
427.641756	1.001163
428.019662	1.001362
428.397508	0.999970
428.775292	1.001095
429.153016	1.000081
429.530679	1.001384
429.908282	1.001049
430.285824	1.000961
430.663305	1.000401
431.040726	1.000409
431.418086	1.001611
431.795385	1.001663
432.172624	1.000763
432.549802	1.001320
432.926920	1.001508
433.303977	1.000285
433.680974	1.001293
434.057910	1.000846
434.434786	1.001577
434.811601	1.000746
435.188355	1.000053
435.565050	0.999608
435.941683	1.000496
436.318257	1.002593
436.694770	0.999483
437.071222	1.001492
437.447614	1.000967
437.823946	1.000832
438.200218	1.001384
438.576429	1.000837
438.952580	1.001738
439.328670	1.000101
439.704700	1.001675
440.080670	1.001876
440.456580	1.000519
440.832429	1.000304
441.208218	1.001204
441.583947	1.000837
441.959616	1.001340
442.335224	1.000903
442.710773	1.002236
443.086261	1.000947
443.461689	1.000696
443.837057	1.000801
444.212365	1.000993
444.587612	1.000185
444.962800	1.000802
445.337927	1.000951
445.712995	1.001299
446.088002	1.001482
446.462949	1.001467
446.837837	1.001578
447.212664	1.001272
447.587431	1.001551
447.962139	1.001275
448.336786	1.001182
448.711374	1.001364
449.085901	1.001106
449.460369	1.001893
449.834776	1.001048
450.209124	1.001159
450.583412	1.001283
450.957640	1.001067
451.331808	1.001419
451.705917	1.001097
452.079965	1.000853
452.453954	1.000498
452.827883	1.001558
453.201752	1.000813
453.575562	1.001708
453.949311	1.001472
454.323001	1.001305
454.696632	1.000234
455.070202	1.001123
455.443713	1.000771
455.817164	1.001722
456.190556	1.001354
456.563888	1.000879
456.937160	1.000917
457.310373	1.000845
457.683526	1.001220
458.056619	1.001435
458.429653	1.002027
458.802628	0.999987
459.175542	1.001429
459.548398	1.001225
459.921194	1.001055
460.293930	1.001028
460.666607	1.000741
461.039224	1.000411
461.411782	1.001204
461.784280	1.000125
462.156719	1.001319
462.529099	1.001443
462.901419	1.000956
463.273680	1.001235
463.645882	1.001166
464.018024	1.001582
464.390106	1.001172
464.762130	1.001299
465.134094	1.001092
465.505999	1.000779
465.877845	1.000463
466.249631	1.001010
466.621358	1.001236
466.993026	1.001501
467.364634	1.001288
467.736184	1.001493
468.107674	1.000934
468.479105	1.000751
468.850477	1.001441
469.221790	1.001363
469.593043	1.002030
469.964238	1.001749
470.335373	1.001415
470.706449	1.001344
471.077467	1.001747
471.448425	1.000761
471.819324	1.001305
472.190164	1.000998
472.560945	1.001291
472.931667	1.001284
473.302330	1.000985
473.672934	1.001861
474.043479	1.001390
474.413965	1.000938
474.784393	1.002233
475.154761	1.001110
475.525070	1.000635
475.895321	1.001385
476.265513	1.001029
476.635645	1.000964
477.005719	1.001450
477.375734	1.001079
477.745691	1.001362
478.115588	1.001319
478.485427	1.001954
478.855207	1.000620
479.224928	1.001360
479.594591	1.000520
479.964194	1.001273
480.333739	1.001642
480.703226	1.001132
481.072653	1.001598
481.442022	1.002196
481.811333	1.000698
482.180584	1.001506
482.549777	1.000922
482.918912	1.001346
483.287988	1.001597
483.657005	1.001407
484.025964	1.001536
484.394864	1.001618
484.763706	1.001854
485.132489	1.001370
485.501213	1.001561
485.869879	1.001608
486.238487	1.001676
486.607036	1.001782
486.975527	1.000832
487.343959	1.001028
487.712333	1.000909
488.080648	1.001501
488.448905	1.001426
488.817104	1.001954
489.185244	1.001257
489.553326	1.001647
489.921350	1.000880
490.289315	1.000629
490.657222	1.001459
491.025070	1.001291
491.392861	1.001304
491.760593	1.001477
492.128267	1.001022
492.495883	1.001263
492.863440	1.001320
493.230939	1.001436
493.598380	1.001518
493.965763	1.001410
494.333088	1.001659
494.700354	1.000767
495.067563	1.001331
495.434713	1.001025
495.801805	1.001323
496.168839	1.001374
496.535815	1.000945
496.902733	1.001733
497.269593	1.001188
497.636395	1.001778
498.003139	1.001785
498.369825	1.001796
498.736453	1.001637
499.103023	1.000840
499.469535	1.000933
499.835989	1.001275
500.202385	1.001489
500.568723	1.001243
500.935003	1.001629
501.301226	1.001769
501.667390	1.001480
502.033497	1.001792
502.399546	1.002100
502.765537	1.000709
503.131470	1.000936
503.497345	1.001043
503.863163	1.001872
504.228923	1.001339
504.594625	1.002014
504.960269	1.001611
505.325856	1.001669
505.691385	1.001192
506.056856	1.001234
506.422270	1.001142
506.787625	1.001404
507.152924	1.001227
507.518164	1.001426
507.883347	1.001278
508.248472	1.001116
508.613540	1.001607
508.978550	1.001957
509.343503	1.000971
509.708398	1.001272
510.073236	1.001463
510.438016	1.001573
510.802738	1.001499
511.167403	1.001632
511.532010	1.001291
511.896561	1.000870
512.261053	1.002864
512.625488	1.001120
512.989866	1.002034
513.354186	1.001417
513.718449	1.001581
514.082655	1.001570
514.446803	1.001635
514.810894	1.001554
515.174927	1.001099
515.538904	1.001208
515.902822	1.000943
516.266684	1.001437
516.630488	1.002232
516.994235	1.000801
517.357925	1.001261
517.721558	1.001449
518.085133	1.000678
518.448651	1.001821
518.812112	1.001759
519.175516	1.001376
519.538863	1.001177
519.902152	1.000996
520.265385	1.000960
520.628560	1.001049
520.991678	1.001073
521.354739	1.001590
521.717743	1.001456
522.080690	1.001945
522.443580	1.001632
522.806413	1.001303
523.169189	1.001031
523.531908	1.000593
523.894569	1.001224
524.257174	1.001593
524.619722	1.001230
524.982213	1.001458
525.344647	1.002348
525.707025	1.001378
526.069345	1.000966
526.431608	1.001471
526.793815	1.002279
527.155964	1.000652
527.518057	1.001475
527.880093	1.001500
528.242072	1.001281
528.603995	1.001735
528.965860	1.002510
529.327669	1.001164
529.689421	1.001471
530.051117	1.002039
530.412755	1.001670
530.774337	1.001633
531.135862	1.001455
531.497331	1.001786
531.858743	1.001626
532.220098	1.001790
532.581396	1.002125
532.942638	1.001275
533.303824	1.001590
533.664953	1.001319
534.026025	1.001208
534.387040	1.001689
534.747999	1.002266
535.108902	1.002293
535.469748	1.001373
535.830537	1.000694
536.191270	1.001652
536.551947	1.001469
536.912567	1.001361
537.273131	1.002060
537.633638	1.000411
537.994089	1.002061
538.354483	1.001354
538.714821	1.001219
539.075103	1.001530
539.435328	1.001374
539.795497	1.001676
540.155609	1.001076
540.515665	1.001532
540.875665	1.001947
541.235609	1.001158
541.595496	1.001777
541.955328	1.000473
542.315102	1.001615
542.674821	1.001695
543.034483	1.000655
543.394090	1.000808
543.753640	1.001505
544.113134	1.001202
544.472571	1.001691
544.831953	1.001319
545.191278	1.001012
545.550548	1.002137
545.909761	1.000618
546.268918	1.001528
546.628019	1.001814
546.987064	1.001234
547.346053	1.001784
547.704986	1.001401
548.063863	1.002064
548.422684	1.001713
548.781449	1.002255
549.140158	1.001471
549.498811	1.001924
549.857408	1.001386
550.215949	1.001652
550.574434	1.000676
550.932864	1.001518
551.291237	1.002484
551.649555	1.001239
552.007817	1.001648
552.366022	1.001054
552.724173	1.001679
553.082267	1.001694
553.440305	1.001328
553.798288	1.001519
554.156215	1.000979
554.514086	1.002011
554.871902	1.000985
555.229661	1.001429
555.587365	1.001487
555.945014	1.001940
556.302606	1.001521
556.660143	1.001642
557.017625	1.000913
557.375050	1.001303
557.732421	1.001978
558.089735	1.002385
558.446994	1.002700
558.804197	1.001722
559.161345	1.002729
559.518437	1.002031
559.875474	1.001048
560.232455	1.001555
560.589381	1.002133
560.946251	1.000568
561.303065	1.001226
561.659825	1.001325
562.016528	1.001514
562.373177	1.001436
562.729770	1.001026
563.086307	1.001774
563.442789	1.000926
563.799216	1.001333
564.155587	1.001184
564.511904	1.000802
564.868164	1.000649
565.224370	1.001563
565.580520	1.001494
565.936615	1.001641
566.292654	1.001184
566.648638	1.001617
567.004567	1.001142
567.360441	1.001363
567.716260	1.001912
568.072023	1.001402
568.427732	1.001394
568.783385	1.001337
569.138982	1.001844
569.494525	1.001454
569.850013	1.001578
570.205445	1.001282
570.560823	1.000935
570.916145	1.001414
571.271412	1.001350
571.626625	1.001460
571.981782	1.001197
572.336884	1.002425
572.691931	1.001488
573.046923	1.000793
573.401860	1.001510
573.756743	1.001893
574.111570	1.001725
574.466342	1.002025
574.821059	1.001534
575.175722	1.001031
575.530330	1.001623
575.884882	1.001242
576.239380	1.002673
576.593823	1.001213
576.948211	1.002004
577.302544	1.001403
577.656823	1.001711
578.011047	1.001822
578.365216	1.001384
578.719330	1.001271
579.073389	1.002193
579.427394	1.001004
579.781344	1.001522
580.135239	1.001560
580.489080	1.001768
580.842866	1.001012
581.196597	1.001048
581.550273	1.000522
581.903895	1.001290
582.257463	1.001172
582.610975	1.001289
582.964434	1.001066
583.317837	1.001822
583.671186	1.001482
584.024481	1.001053
584.377721	1.001328
584.730906	1.001358
585.084037	1.001727
585.437113	1.001509
585.790135	1.001395
586.143103	1.001372
586.496016	1.001600
586.848874	1.001519
587.201679	1.001251
587.554428	1.001594
587.907124	1.001408
588.259765	1.001162
588.612352	1.001973
588.964884	1.001988
589.317362	1.001834
589.669786	1.001936
590.022155	1.001251
590.374470	1.001514
590.726731	1.001023
591.078937	1.001098
591.431090	1.001573
591.783188	1.001279
592.135232	1.001084
592.487222	1.001060
592.839157	1.001559
593.191038	1.001268
593.542866	1.000714
593.894639	1.002096
594.246358	1.001322
594.598022	1.001047
594.949633	1.001115
595.301190	1.000950
595.652692	1.001542
596.004141	1.002365
596.355535	1.001134
596.706876	1.001166
597.058162	1.001250
597.409395	1.001841
597.760573	1.001026
598.111698	1.001590
598.462768	1.000984
598.813785	1.001580
599.164748	1.001060
599.515657	1.001231
599.866511	1.000374
600.217312	1.001889
600.568060	1.001290
600.918753	1.002034
601.269392	1.001810
601.619978	1.001557
601.970510	1.001709
602.320988	1.001594
602.671412	1.001176
603.021783	1.001476
603.372100	1.002046
603.722363	1.001678
604.072572	1.001363
604.422728	1.001678
604.772830	1.001156
605.122878	1.000850
605.472872	1.001930
605.822813	1.000922
606.172701	1.001691
606.522534	1.001904
606.872314	1.001978
607.222041	1.001286
607.571714	1.001408
607.921333	1.000732
608.270899	1.001082
608.620411	1.001585
608.969870	1.001762
609.319276	1.001578
609.668627	1.001834
610.017926	1.001004
610.367171	1.001113
610.716362	1.000399
611.065500	1.001035
611.414585	1.001351
611.763616	1.001146
612.112594	1.000661
612.461518	1.000520
612.810389	1.001528
613.159207	1.001639
613.507971	1.001403
613.856682	1.001457
614.205340	1.001070
614.553945	1.000593
614.902496	1.001351
615.250994	1.001254
615.599439	1.001764
615.947830	1.001847
616.296169	1.001315
616.644454	1.000624
616.992686	1.001403
617.340864	1.001812
617.688990	1.001940
618.037063	1.001258
618.385082	1.001641
618.733048	1.001464
619.080961	1.001169
619.428821	1.001584
619.776628	1.001105
620.124382	1.000743
620.472083	1.000448
620.819731	1.002377
621.167326	1.001878
621.514868	1.001193
621.862357	1.001023
622.209793	1.001873
622.557176	1.000125
622.904506	1.001267
623.251783	1.000555
623.599007	1.001207
623.946179	1.001918
624.293297	1.001524
624.640363	1.001090
624.987376	1.000666
625.334336	1.002290
625.681243	1.001321
626.028097	1.002526
626.374899	1.001438
626.721647	1.001326
627.068343	1.001898
627.414987	1.001177
627.761577	1.000938
628.108115	1.001763
628.454600	1.001898
628.801032	1.000813
629.147412	1.001678
629.493739	1.000684
629.840014	1.001022
630.186236	1.001255
630.532405	1.001333
630.878521	1.001782
631.224585	1.001451
631.570597	1.001630
631.916556	1.001248
632.262462	1.001308
632.608316	1.002016
632.954117	1.000553
633.299866	1.001261
633.645562	1.001130
633.991206	1.001460
634.336797	1.001762
634.682336	1.001720
635.027823	1.001211
635.373257	1.002124
635.718639	1.001572
636.063968	1.001043
636.409245	1.001400
636.754470	1.000644
637.099642	1.002110
637.444762	1.001537
637.789829	1.000905
638.134845	1.001244
638.479808	1.001145
638.824719	1.001743
639.169577	1.000411
639.514383	1.001200
639.859137	1.000889
640.203839	1.000857
640.548489	1.000791
640.893086	1.001255
641.237632	1.001456
641.582125	1.000289
641.926566	1.000250
642.270955	1.001032
642.615292	1.001648
642.959576	1.001513
643.303809	1.001823
643.647990	1.001018
643.992118	1.001484
644.336195	1.001258
644.680219	1.000977
645.024192	1.001410
645.368112	1.000929
645.711981	1.001527
646.055797	1.000700
646.399562	1.000636
646.743274	0.999887
647.086935	1.001286
647.430544	1.001133
647.774101	1.000655
648.117606	1.001310
648.461059	1.000674
648.804460	1.000864
649.147810	1.000764
649.491108	1.000873
649.834354	1.000786
650.177548	1.001013
650.520690	1.001376
650.863781	1.001576
651.206820	1.000732
651.549807	1.001224
651.892742	1.001763
652.235626	1.001184
652.578458	1.001483
652.921238	1.000891
653.263967	1.002002
653.606644	1.001916
653.949269	1.001316
654.291843	1.001487
654.634365	1.000794
654.976836	1.001730
655.319255	1.000978
655.661622	1.001614
656.003938	1.001027
656.346203	1.001374
656.688416	1.001052
657.030577	1.001308
657.372687	1.000765
657.714746	1.001131
658.056753	1.001209
658.398708	1.001281
658.740612	1.001150
659.082465	1.001628
659.424266	1.001586
659.766016	1.000481
660.107715	1.000280
660.449362	1.001424
660.790958	1.000871
661.132503	0.999055
661.473996	1.001691
661.815438	1.000360
662.156829	1.000576
662.498168	1.000786
662.839456	1.000728
663.180693	1.001031
663.521879	1.002333
663.863013	1.001709
664.204097	1.001397
664.545129	1.001485
664.886110	1.001889
665.227040	1.001207
665.567918	1.000843
665.908746	1.000603
666.249522	1.000473
666.590248	1.000804
666.930922	1.001250
667.271545	1.000894
667.612118	1.000962
667.952639	1.001055
668.293109	1.001092
668.633528	1.001215
668.973896	1.002107
669.314213	1.000772
669.654480	1.001245
669.994695	1.001317
670.334859	1.000942
670.674973	1.000638
671.015035	1.000689
671.355047	1.000557
671.695008	1.001061
672.034918	1.000421
672.374777	1.001678
672.714585	1.000356
673.054342	1.001921
673.394049	1.000592
673.733705	1.001129
674.073310	1.001173
674.412864	1.001025
674.752368	1.000352
675.091820	1.002258
675.431223	1.000917
675.770574	1.001222
676.109875	1.000377
676.449125	1.000409
676.788324	1.000602
677.127473	1.001688
677.466571	1.000313
677.805619	1.000882
678.144616	1.001247
678.483562	1.000588
678.822458	1.000499
679.161303	1.001512
679.500098	1.000862
679.838842	1.001657
680.177535	1.001720
680.516179	1.000816
680.854771	1.001259
681.193314	1.001523
681.531805	1.001001
681.870247	1.000323
682.208638	1.000288
682.546978	0.999485
682.885268	1.000489
683.223508	1.000179
683.561697	1.000402
683.899836	1.000760
684.237925	1.001091
684.575963	1.001143
684.913951	1.000502
685.251889	1.001461
685.589776	1.000707
685.927614	1.000377
686.265401	1.001143
686.603137	1.000644
686.940824	1.000463
687.278460	1.000184
687.616046	1.001105
687.953582	0.999881
688.291068	1.000181
688.628504	1.001239
688.965889	1.000391
689.303224	1.000414
689.640510	1.000842
689.977745	1.000677
690.314930	1.001849
690.652065	1.000553
690.989150	1.000852
691.326185	1.001617
691.663170	1.000800
692.000105	1.000547
692.336990	1.001100
692.673825	1.001173
693.010610	1.001423
693.347345	1.000047
693.684030	1.000621
694.020665	1.001016
694.357251	1.000373
694.693786	1.001761
695.030272	1.001744
695.366707	1.000662
695.703093	1.000317
696.039429	1.000294
696.375716	1.000648
696.711952	1.000750
697.048139	1.000587
697.384276	0.999947
697.720363	0.999469
698.056400	1.000170
698.392388	1.000501
698.728326	1.000691
699.064214	1.001231
699.400053	1.001670
699.735842	1.001170
700.071581	1.001144
700.407270	0.999670
700.742910	1.000977
701.078501	1.001744
701.414042	1.000847
701.749533	1.000298
702.084974	1.000794
702.420366	0.999681
702.755709	0.999649
703.091002	1.000786
703.426246	1.000706
703.761440	1.000725
704.096584	1.000681
704.431679	1.000436
704.766725	0.999938
705.101721	1.000262
705.436668	0.999080
705.771565	1.000420
706.106413	1.001188
706.441212	1.000409
706.775961	0.999923
707.110661	1.000312
707.445311	0.999879
707.779913	1.000496
708.114465	1.001063
708.448967	1.000431
708.783421	0.999980
709.117825	0.999889
709.452180	1.001348
709.786485	0.999488
710.120742	0.999180
710.454949	0.999723
710.789107	1.000826
711.123216	1.000527
711.457275	1.000689
711.791286	0.999234
712.125247	0.999473
712.459159	0.998789
712.793023	1.000046
713.126837	1.001088
713.460602	1.000390
713.794318	1.000800
714.127985	0.999815
714.461602	1.000048
714.795171	0.999308
715.128691	0.999880
715.462162	1.000501
715.795584	0.999503
716.128957	1.000491
716.462281	0.999624
716.795556	1.000432
717.128782	0.999549
717.461960	1.000834
717.795088	0.999299
718.128167	1.000498
718.461198	1.000813
718.794180	1.000212
719.127113	1.000730
719.459997	1.001078
719.792833	1.000011
720.125619	1.000298
720.458357	1.000306
720.791046	1.001011
721.123686	1.000067
721.456278	1.000115
721.788821	1.000157
722.121315	0.999333
722.453761	1.000097
722.786158	0.999825
723.118506	1.000295
723.450805	1.000212
723.783056	1.000738
724.115259	1.000279
724.447412	1.000355
724.779518	0.999910
725.111574	0.999618
725.443582	0.999914
725.775542	1.000470
726.107453	1.000554
726.439315	1.000062
726.771129	0.999624
727.102895	1.000286
727.434612	0.999653
727.766281	0.999043
728.097901	0.999518
728.429473	1.000568
728.760996	1.000063
729.092471	0.998832
729.423897	0.999590
729.755276	1.000358
730.086606	0.999472
730.417887	0.999638
730.749120	1.000259
731.080305	1.000008
731.411442	0.999825
731.742530	1.000495
732.073570	1.000025
732.404562	0.999736
732.735506	0.999973
733.066401	1.000797
733.397249	1.000677
733.728048	1.000177
734.058798	1.000889
734.389501	1.000150
734.720156	0.998972
735.050762	1.000134
735.381320	1.000705
735.711831	1.001644
736.042293	1.000837
736.372707	0.999817
736.703073	1.000685
737.033391	1.000042
737.363661	1.000611
737.693883	1.000230
738.024056	0.999840
738.354182	0.999741
738.684260	1.000265
739.014290	0.999605
739.344272	0.999358
739.674207	1.001011
740.004093	0.999829
740.333931	0.999879
740.663722	0.999699
740.993464	1.000264
741.323159	0.999398
741.652806	0.999791
741.982405	1.001178
742.311956	0.999334
742.641460	1.000795
742.970915	0.999971
743.300323	0.999378
743.629683	1.000039
743.958996	0.999858
744.288260	1.000160
744.617477	1.000712
744.946647	0.999158
745.275768	0.998725
745.604842	0.999875
745.933869	0.999647
746.262847	0.999539
746.591778	0.999549
746.920662	1.000229
747.249498	0.999563
747.578286	0.998754
747.907027	0.999077
748.235720	1.000430
748.564365	0.999118
748.892963	0.999362
749.221514	0.998745
749.550017	0.999913
749.878473	0.999059
750.206881	0.999508
750.535242	1.000405
750.863555	1.000079
751.191821	1.000478
751.520039	0.999417
751.848210	1.000406
752.176334	0.999326
752.504411	0.999886
752.832440	1.000061
753.160421	1.000058
753.488356	1.000344
753.816243	1.001037
754.144082	0.999484
754.471875	0.999826
754.799620	0.999430
755.127318	0.999527
755.454969	0.999172
755.782572	1.000208
756.110129	0.999825
756.437638	0.999572
756.765100	1.000312
757.092515	0.999288
757.419882	1.000350
757.747203	0.999810
758.074477	0.998724
758.401703	1.000039
758.728882	0.999921
759.056014	0.999145
759.383099	1.000223
759.710138	0.999289
760.037129	0.999128
760.364073	0.999943
760.690970	1.000039
761.017820	1.000268
761.344623	0.999822
761.671379	1.000316
761.998088	0.999476
762.324751	0.999689
762.651366	1.000037
762.977935	0.998559
763.304456	0.999011
763.630931	0.999315
763.957359	0.998882
764.283740	1.000988
764.610074	0.999530
764.936362	1.000248
765.262602	0.999525
765.588796	0.999286
765.914943	1.001477
766.241044	1.000458
766.567097	1.001082
766.893104	0.999531
767.219064	0.998655
767.544978	0.999910
767.870845	1.000644
768.196665	0.999370
768.522438	0.999548
768.848165	0.999253
769.173846	1.000350
769.499479	1.000489
769.825066	0.999280
770.150607	1.000501
770.476101	0.998848
770.801548	0.998713
771.126949	0.999660
771.452303	0.998023
771.777611	0.999939
772.102872	1.000290
772.428087	0.999258
772.753256	0.999446
773.078378	1.000337
773.403453	0.999603
773.728482	1.000680
774.053465	0.999684
774.378401	1.000867
774.703291	1.000482
775.028135	1.000572
775.352932	1.000342
775.677683	0.999604
776.002388	0.998667
776.327046	0.998007
776.651658	0.999119
776.976224	0.998670
777.300743	0.999519
777.625216	0.998813
777.949643	0.999134
778.274024	1.000640
778.598359	0.999401
778.922647	1.000842
779.246889	1.000903
779.571086	1.000917
779.895236	1.000127
780.219339	0.999872
780.543397	1.000156
780.867409	0.999917
781.191374	0.999357
781.515294	0.999909
781.839167	0.999057
782.162995	0.999790
782.486776	0.999968
782.810511	0.999710
783.134201	0.999549
783.457844	0.998559
783.781441	0.999372
784.104993	1.000267
784.428498	0.998901
784.751958	0.999576
785.075372	1.000796
785.398739	0.999208
785.722061	1.000438
786.045337	0.999329
786.368568	1.000106
786.691752	1.000405
787.014891	1.000408
787.337983	0.999220
787.661030	1.000177
787.984031	1.000936
788.306987	0.999696
788.629897	0.999507
788.952760	0.999001
789.275579	0.999707
789.598351	0.998703
789.921078	0.999568
790.243759	0.999127
790.566395	0.999501
790.888984	0.998534
791.211529	0.999151
791.534027	0.999422
791.856480	0.999619
792.178888	1.000735
792.501249	0.999614
792.823566	1.001256
793.145836	0.999475
793.468062	0.999864
793.790241	0.999470
794.112375	0.999068
794.434464	0.998879
794.756507	0.998811
795.078505	1.000643
795.400457	0.999335
795.722364	1.000244
796.044226	0.998303
796.366042	0.999063
796.687812	0.999638
797.009538	1.000210
797.331218	0.998852
797.652852	1.000181
797.974442	1.000016
798.295986	0.998475
798.617484	0.999245
798.938938	0.999794
799.260346	0.999997
799.581709	1.000302
799.903026	0.999925
800.224299	0.998418
800.545526	0.999501
800.866708	1.000111
801.187845	1.000686
801.508936	1.000472
801.829983	1.000856
802.150984	0.998735
802.471940	0.999664
802.792851	0.999244
803.113717	0.998655
803.434538	1.001049
803.755314	1.000123
804.076045	1.000647
804.396731	0.999594
804.717372	1.000538
805.037967	0.999716
805.358518	1.000616
805.679024	1.000726
805.999485	0.999837
806.319901	1.001611
806.640272	0.999994
806.960598	0.999350
807.280879	1.000387
807.601115	1.000496
807.921306	0.999695
808.241453	0.998794
808.561554	0.998450
808.881611	0.999639
809.201623	0.999585
809.521590	0.999573
809.841513	0.999601
810.161390	0.999621
810.481223	0.999258
810.801011	0.999987
811.120755	1.000431
811.440453	1.000088
811.760107	0.999102
812.079716	0.999792
812.399281	0.999339
812.718801	1.000029
813.038276	1.000434
813.357707	0.999377
813.677093	0.999669
813.996434	1.001043
814.315731	1.000558
814.634983	1.000099
814.954191	0.998978
815.273354	1.000491
815.592473	0.999483
815.911547	0.999753
816.230577	0.999812
816.549562	0.999691
816.868502	1.001698
817.187399	1.000013
817.506250	0.999551
817.825058	0.999896
818.143821	1.000239
818.462539	1.000454
818.781213	1.000190
819.099843	0.998118
819.418429	0.999619
819.736970	0.999158
820.055466	0.998742
820.373919	0.999370
820.692327	0.998944
821.010691	0.998330
821.329011	0.999179
821.647286	0.996235
821.965517	0.995849
822.283704	0.996989
822.601847	0.997956
822.919945	0.996826
823.237999	0.998555
823.556010	0.998581
823.873976	0.998762
824.191897	0.999448
824.509775	0.999319
824.827609	0.998798
825.145398	0.999595
825.463144	0.999090
825.780845	0.999412
826.098502	0.999201
826.416116	0.997670
826.733685	0.998513
827.051210	0.997817
827.368692	0.998194
827.686129	0.998118
828.003522	0.998592
828.320872	0.997832
828.638177	0.999545
828.955439	1.000929
829.272656	0.999330
829.589830	0.998877
829.906960	1.001357
830.224046	0.998814
830.541088	0.998474
830.858086	0.998385
831.175041	0.999542
831.491952	1.000502
831.808819	0.999675
832.125642	1.000888
832.442421	0.998612
832.759157	1.000271
833.075849	0.999124
833.392497	0.998746
833.709101	0.998173
834.025662	0.998799
834.342179	0.998349
834.658653	0.999885
834.975083	0.998935
835.291469	0.999239
835.607811	0.999693
835.924110	0.997373
836.240366	1.000584
836.556578	0.999353
836.872746	1.000216
837.188871	0.999577
837.504952	0.998561
837.820990	0.999746
838.136984	0.998802
838.452935	0.999364
838.768842	0.999709
839.084706	0.999345
839.400526	0.997178
839.716303	0.998185
840.032037	0.999001
840.347727	0.999111
840.663373	1.000835
840.978977	1.000572
841.294537	0.999865
841.610054	0.999967
841.925527	0.999722
842.240957	0.999966
842.556344	0.999335
842.871687	1.000416
843.186987	1.001380
843.502244	0.999731
843.817458	0.999587
844.132629	0.999704
844.447756	1.000683
844.762840	1.000096
845.077881	1.000013
845.392879	0.999748
845.707833	0.999037
846.022745	1.000653
846.337613	0.999992
846.652438	1.001386
846.967221	0.999420
847.281960	0.999308
847.596656	1.000011
847.911309	0.998798
848.225919	1.000280
848.540485	0.998830
848.855009	1.000199
849.169490	0.998244
849.483928	1.000246
849.798323	1.000222
850.112675	1.000630
850.426984	0.999862
850.741251	1.000919
851.055474	1.000544
851.369654	0.999161
851.683792	1.000579
851.997887	1.000897
852.311938	1.000400
852.625947	1.000223
852.939914	0.999508
853.253837	0.999295
853.567718	1.000607
853.881555	1.000096
854.195350	0.999501
854.509103	1.000998
854.822812	1.000885
855.136479	1.000242
855.450103	1.000822
855.763685	1.000235
856.077224	0.999442
856.390720	0.999912
856.704173	1.000406
857.017584	1.000788
857.330953	0.999823
857.644278	1.001461
857.957561	0.998760
858.270802	0.999497
858.584000	0.999815
858.897155	0.999548
859.210268	1.000991
859.523339	0.999764
859.836367	0.999882
860.149352	1.000146
860.462295	0.999292
860.775195	1.001110
861.088054	1.000061
861.400869	0.998715
861.713642	1.000566
862.026373	0.998996
862.339062	1.000502
862.651708	0.999085
862.964312	0.999406
863.276873	0.999763
863.589392	0.999591
863.901869	1.001769
864.214303	1.000541
864.526696	0.999969
864.839045	1.000891
865.151353	0.999223
865.463619	0.999663
865.775842	0.999761
866.088023	1.000012
866.400162	0.999507
866.712258	1.000533
867.024313	1.000581
867.336325	0.999125
867.648296	0.998848
867.960224	1.001899
868.272110	0.999375
868.583954	0.999828
868.895755	1.000190
869.207515	0.999340
869.519233	0.999608
869.830909	1.000940
870.142542	0.999285
870.454134	0.999805
870.765684	1.001725
871.077191	0.998525
871.388657	1.000723
871.700081	0.999423
872.011463	1.000255
872.322803	1.000359
872.634101	1.000622
872.945357	1.000288
873.256571	1.000318
873.567744	1.000063
873.878874	0.999335
874.189963	0.998169
874.501010	0.999192
874.812015	1.000295
875.122979	1.001159
875.433900	1.000367
875.744780	1.000376
876.055618	0.999269
876.366415	1.000442
876.677169	0.999205
876.987882	0.999352
877.298554	0.999861
877.609183	1.000548
877.919771	0.999136
878.230317	1.000334
878.540822	0.999287
878.851285	0.998710
879.161707	0.998735
879.472087	1.000538
879.782425	0.998898
880.092722	0.999080
880.402977	0.998655
880.713191	0.998147
881.023363	0.998368
881.333494	0.997214
881.643583	0.997206
881.953631	0.997486
882.263637	0.997503
882.573602	0.997723
882.883526	0.998425
883.193408	0.998745
883.503248	0.998995
883.813048	0.999345
884.122806	0.999163
884.432522	0.998961
884.742197	1.000026
885.051831	0.998824
885.361424	0.998761
885.670975	0.999986
885.980485	0.999595
886.289954	0.999974
886.599382	1.000533
886.908768	1.000966
887.218113	1.000622
887.527417	0.999328
887.836680	1.001090
888.145901	1.000055
888.455082	0.999912
888.764221	1.000189
889.073319	0.999887
889.382376	0.999295
889.691392	1.000826
890.000366	0.999035
890.309300	0.999479
890.618193	1.000020
890.927044	0.999449
891.235855	1.000024
891.544625	0.998913
891.853353	0.999278
892.162041	0.999520
892.470687	0.999871
892.779293	0.997896
893.087858	0.999663
893.396381	0.999568
893.704864	0.998499
894.013306	0.999202
894.321707	0.998559
894.630068	0.999543
894.938387	0.998954
895.246665	0.999288
895.554903	0.998363
895.863100	0.999249
896.171256	0.998811
896.479371	0.998694
896.787446	0.998646
897.095480	0.999077
897.403473	1.000247
897.711425	0.999677
898.019336	0.999598
898.327207	0.998422
898.635038	1.000995
898.942827	0.999738
899.250576	0.999808
899.558284	0.999874
899.865952	0.999638
900.173579	1.000300
900.481165	0.999787
900.788711	1.001203
901.096216	1.000325
901.403681	0.998586
901.711105	1.000922
902.018489	1.000482
902.325832	0.999186
902.633135	1.000523
902.940397	1.000085
903.247619	1.000501
903.554800	0.998260
903.861941	0.998839
904.169041	0.999589
904.476101	0.998443
904.783121	0.998556
905.090100	0.999395
905.397039	0.999250
905.703938	0.999544
906.010796	1.000370
906.317614	1.000547
906.624391	0.999445
906.931129	1.000141
907.237826	0.999245
907.544483	1.000636
907.851099	0.999289
908.157675	1.000749
908.464211	1.000134
908.770707	1.000579
909.077163	0.999016
909.383578	0.998280
909.689954	0.998507
909.996289	1.000928
910.302584	0.999752
910.608839	1.001121
910.915054	0.999818
911.221229	0.999412
911.527363	1.000150
911.833458	1.000167
912.139513	0.999688
912.445527	0.998226
912.751502	0.998784
913.057436	0.998874
913.363331	0.999144
913.669186	0.998768
913.975000	0.999468
914.280775	1.000492
914.586510	0.999406
914.892205	0.998179
915.197859	0.999073
915.503475	0.998126
915.809050	0.998864
916.114585	0.997256
916.420081	0.998221
916.725536	0.998439
917.030952	0.999698
917.336328	0.998730
917.641665	0.998021
917.946961	0.999050
918.252218	0.999424
918.557435	0.999422
918.862612	1.000167
919.167750	0.999947
919.472848	0.999105
919.777906	0.998751
920.082925	1.000412
920.387904	1.000422
920.692843	0.999773
920.997743	0.999339
921.302603	0.999962
921.607423	0.999188
921.912204	1.000086
922.216946	0.999327
922.521647	1.000491
922.826310	1.000008
923.130932	0.999531
923.435516	0.999628
923.740059	1.000000
924.044564	0.999374
924.349028	0.999722
924.653454	1.000622
924.957840	1.002019
925.262186	1.000087
925.566493	1.000149
925.870761	1.000313
926.174989	0.999808
926.479178	1.000149
926.783328	1.000653
927.087438	1.000397
927.391509	1.000692
927.695541	1.001714
927.999533	0.998588
928.303486	0.999145
928.607400	1.001017
928.911275	0.999730
929.215110	0.999387
929.518906	0.999687
929.822663	0.999474
930.126381	1.000566
930.430060	1.000851
930.733699	0.999858
931.037299	1.000571
931.340861	1.001455
931.644383	1.000276
931.947866	0.998892
932.251309	1.000969
932.554714	0.999994
932.858080	0.999773
933.161407	1.000767
933.464694	1.000785
933.767943	0.999167
934.071153	1.000107
934.374323	1.000739
934.677455	0.999711
934.980548	1.000253
935.283602	0.998700
935.586617	1.000075
935.889593	0.999030
936.192530	0.998555
936.495428	0.999179
936.798287	0.999887
937.101108	1.000633
937.403890	0.999678
937.706632	1.001117
938.009336	0.998958
938.312002	1.000316
938.614628	1.000890
938.917216	1.000288
939.219765	0.998963
939.522275	1.001520
939.824747	1.000160
940.127179	0.999377
940.429573	1.001476
940.731929	0.999157
941.034246	1.000019
941.336524	1.000512
941.638763	0.999994
941.940964	0.999891
942.243126	0.999260
942.545250	1.001239
942.847335	1.000303
943.149381	0.999839
943.451389	0.999703
943.753359	0.999118
944.055290	1.001825
944.357182	1.000014
944.659036	0.998178
944.960851	0.999035
945.262628	1.000477
945.564367	1.001206
945.866067	0.999982
946.167729	1.000512
946.469352	0.999737
946.770937	0.999282
947.072484	1.000915
947.373992	0.999854
947.675462	1.000397
947.976893	0.999579
948.278286	0.999509
948.579641	1.001164
948.880958	0.999650
949.182236	0.999178
949.483476	1.001070
949.784678	0.999238
950.085841	1.000119
950.386967	0.999785
950.688054	0.999011
950.989103	1.001067
951.290114	0.998892
951.591087	1.000255
951.892021	1.000976
952.192917	1.000310
952.493776	0.999335
952.794596	1.000089
953.095378	1.000202
953.396122	1.000483
953.696828	0.998732
953.997496	1.001220
954.298126	1.000961
954.598718	0.999188
954.899272	1.000716
955.199788	0.999615
955.500266	1.000070
955.800706	1.000815
956.101108	1.000082
956.401472	1.001033
956.701798	1.000727
957.002087	0.999894
957.302337	1.000629
957.602550	1.000498
957.902724	1.000303
958.202861	1.000764
958.502960	1.000922
958.803022	0.999221
959.103045	1.001216
959.403031	1.000092
959.702979	1.000036
960.002889	0.999543
960.302762	0.999249
960.602596	1.000721
960.902393	1.000083
961.202153	1.000159
961.501875	1.000909
961.801559	0.998623
962.101205	1.000507
962.400814	0.999956
962.700385	1.000238
962.999918	0.999407
963.299414	0.998951
963.598873	0.999021
963.898293	0.999139
964.197677	0.999603
964.497022	0.998845
964.796331	1.000210
965.095601	1.000566
965.394835	1.000396
965.694030	1.000477
965.993189	1.000483
966.292309	0.999016
966.591393	0.999859
966.890439	0.999491
967.189447	1.000400
967.488419	0.999893
967.787353	0.999407
968.086249	0.999913
968.385108	0.999623
968.683930	0.999733
968.982714	1.001603
969.281462	1.000219
969.580172	0.999931
969.878844	0.999917
970.177480	0.999114
970.476078	1.001410
970.774639	0.999830
971.073162	1.002193
971.371649	1.000199
971.670098	0.999599
971.968510	1.001610
972.266885	1.000116
972.565223	1.000204
972.863524	0.999765
973.161788	1.000383
973.460014	1.000780
973.758204	0.999631
974.056356	1.001407
974.354471	0.998239
974.652550	0.999139
974.950591	0.999343
975.248595	1.000200
975.546563	1.000748
975.844493	1.001369
976.142386	1.000033
976.440243	1.000644
976.738062	1.000039
977.035845	1.000945
977.333590	0.999304
977.631299	1.001058
977.928971	0.999829
978.226606	0.999433
978.524204	0.998962
978.821765	1.000871
979.119290	0.999998
979.416777	1.000491
979.714228	0.999919
980.011642	0.998463
980.309020	1.001049
980.606360	1.000798
980.903664	1.001090
981.200931	0.999036
981.498162	1.000140
981.795356	0.999692
982.092513	0.998848
982.389633	1.000736
982.686717	0.999051
982.983764	1.000171
983.280775	1.000373
983.577749	0.999866
983.874686	1.000179
984.171587	0.999347
984.468451	1.000088
984.765279	1.000780
985.062070	0.998677
985.358824	0.999858
985.655543	0.998718
985.952224	0.999244
986.248869	1.000358
986.545478	1.000017
986.842050	1.000551
987.138586	0.998507
987.435086	0.999968
987.731549	1.000476
988.027975	0.999173
988.324366	0.999426
988.620719	0.999801
988.917037	0.998323
989.213318	1.000398
989.509563	1.002051
989.805772	1.001498
990.101944	1.000086
990.398080	0.999512
990.694180	0.999775
990.990244	0.999736
991.286271	0.999445
991.582262	0.999689
991.878217	0.999747
992.174136	1.000970
992.470019	1.001372
992.765865	1.000337
993.061676	1.000658
993.357450	0.999558
993.653188	0.998889
993.948890	1.000240
994.244556	1.000420
994.540186	0.999499
994.835780	0.999132
995.131337	0.999603
995.426859	0.999358
995.722345	1.000977
996.017795	0.999910
996.313208	1.000037
996.608586	0.998947
996.903928	1.000598
997.199234	1.000215
997.494504	0.999349
997.789738	0.998691
998.084936	0.998785
998.380099	1.000829
998.675225	0.999854
998.970316	1.000553
999.265371	1.001568
999.560390	0.999627
999.855373	1.000597
1000.150320	0.999602
1000.445232	0.999924
1000.740108	1.001621
1001.034948	1.000710
1001.329752	1.000315
1001.624521	1.000445
1001.919254	1.000593
1002.213951	0.999310
1002.508613	1.000108
1002.803239	1.000578
1003.097829	1.000029
1003.392384	1.000578
1003.686903	1.000158
1003.981386	1.000455
1004.275834	1.000887
1004.570246	0.998729
1004.864623	1.000201
1005.158964	1.001709
1005.453270	1.000734
1005.747540	0.999574
1006.041775	1.000343
1006.335974	1.000437
1006.630138	1.001766
1006.924266	1.000934
1007.218359	1.001518
1007.512416	1.000256
1007.806438	1.000726
1008.100425	1.000069
1008.394376	1.001137
1008.688292	0.999593
1008.982172	1.002887
1009.276017	1.000246
1009.569827	1.000571
1009.863602	1.000851
1010.157341	1.001494
1010.451045	1.001635
1010.744714	1.001174
1011.038347	1.001283
1011.331945	1.001028
1011.625508	0.998057
1011.919036	0.999624
1012.212528	0.999426
1012.505986	0.999703
1012.799408	1.000031
1013.092795	1.000556
1013.386147	1.000779
1013.679464	1.000711
1013.972745	0.999119
1014.265992	0.998772
1014.559204	0.999737
1014.852380	1.000836
1015.145521	0.999657
1015.438628	1.001434
1015.731699	0.999524
1016.024736	0.999903
1016.317737	1.000880
1016.610703	0.999317
1016.903635	1.001161
1017.196531	0.999613
1017.489393	1.001866
1017.782219	0.999236
1018.075011	0.999922
1018.367768	1.000532
1018.660490	1.000518
1018.953177	1.000518
1019.245829	1.000518
