Dividing Wavelength (nm)	Counts (n)	Slit_number_40_of_a_total_of_40	
326.493990	1997.305154
326.888308	1997.305154
327.282561	1997.305154
327.676750	1946.893615
328.070874	1946.641558
328.464933	1960.252673
328.858929	1963.529423
329.252859	1970.334981
329.646726	1991.759885
330.040528	2007.639519
330.434265	2011.168327
330.827938	2050.237269
331.221547	2068.889538
331.615091	2065.864846
332.008571	2105.185846
332.401986	2128.627212
332.795338	2170.216731
333.188625	2172.737308
333.581847	2192.649865
333.975006	2216.595346
334.368100	2239.784654
334.761129	2225.921481
335.154095	2263.226019
335.546996	2349.681808
335.939833	2634.254942
336.332606	2652.655154
336.725315	2647.109885
337.117960	2700.798173
337.510540	2684.414423
337.903056	2681.893846
338.295508	2711.384596
338.687896	2715.417519
339.080220	2720.710731
339.472480	2722.727192
339.864676	2726.003942
340.256807	2716.425750
340.648875	2723.231308
341.040879	2732.557442
341.432818	2730.288923
341.824694	2746.420615
342.216506	2709.620192
342.608253	2713.149000
342.999937	2711.636654
343.391557	2705.083154
343.783113	2738.102712
344.174605	2713.653115
344.566033	2737.850654
344.957397	2702.310519
345.348697	2703.570808
345.739934	2729.280692
346.131106	2716.173692
346.522215	2710.124308
346.913260	2734.321846
347.304241	2721.971019
347.695159	2706.595500
348.086012	2710.376365
348.476802	2713.653115
348.867528	2708.864019
349.258191	2710.628423
349.648789	2699.537885
350.039324	2696.261135
350.429796	2716.677808
350.820203	2679.121212
351.210548	2708.611962
351.600828	2706.595500
351.991045	2723.735423
352.381198	2697.269365
352.771288	2715.669577
353.161314	2707.099615
353.551276	2704.579038
353.941175	2689.455577
354.331010	2696.513192
354.720782	2693.740558
355.110490	2711.132538
355.500135	2695.000846
355.889717	2701.806404
356.279235	2706.091385
356.668689	2709.872250
357.058080	2691.724096
357.447408	2708.864019
357.836672	2703.318750
358.225873	2732.305385
358.615010	2708.107846
359.004084	2715.165462
359.393095	2694.244673
359.782043	2721.971019
360.170927	2710.628423
360.559748	2726.003942
360.948505	2727.516288
361.337199	2739.363000
361.725830	2714.157231
362.114398	2720.458673
362.502903	2698.529654
362.891344	2730.288923
363.279722	2695.757019
363.668037	2726.256000
364.056289	2730.793038
364.444478	2728.272462
364.832603	2729.280692
365.220665	2713.401058
365.608665	2734.321846
365.996601	2705.839327
366.384474	2708.107846
366.772284	2729.028635
367.160031	2717.433981
367.547715	2730.540981
367.935336	2741.631519
368.322893	2719.450442
368.710388	2736.338308
369.097820	2736.338308
369.485189	2752.974115
369.872495	2745.412385
370.259738	2726.508058
370.646918	2757.007038
371.034035	2736.842423
371.421090	2729.280692
371.808081	2735.834192
372.195010	2751.965885
372.581875	2751.461769
372.968678	2766.837288
373.355418	2758.519385
373.742096	2756.250865
374.128710	2784.733385
374.515262	2788.010135
374.901751	2816.240596
375.288177	2805.654173
375.674540	2848.251923
376.060841	2819.769404
376.447079	2857.830115
376.833254	2870.433000
377.219367	2910.006058
377.605417	2937.228288
377.991404	2981.086327
378.377329	2966.214923
378.763191	3009.820904
379.148991	3036.791077
379.534727	3090.227308
379.920402	3131.816827
380.306013	3154.754077
380.691563	3217.768500
381.077049	3242.974269
381.462474	3302.711942
381.847835	3379.085423
382.233134	3438.823096
382.618371	3446.384827
383.003545	3541.158519
383.388657	3619.548462
383.773706	3687.856096
384.158693	3777.588635
384.543618	3886.729615
384.928480	3961.590750
385.313280	4040.484808
385.698017	4125.176192
386.082692	4223.226635
386.467305	4313.463288
386.851856	4458.648519
387.236344	4599.548769
387.620770	4630.047750
388.005133	4813.293692
388.389435	4932.264923
388.773674	5036.616808
389.157851	5195.413154
389.541965	5300.017096
389.926018	5384.204365
390.310008	5554.847423
390.693936	5688.690058
391.077802	5800.351615
391.461606	5964.945288
391.845348	6055.686058
392.229027	6237.419654
392.612645	6441.586385
392.996200	6554.508231
393.379694	6726.915692
393.763125	7030.645212
394.146494	7070.722385
394.529801	7252.708038
394.913047	7496.447827
395.296230	7586.180365
395.679351	7685.995212
396.062410	7980.146538
396.445408	7923.433558
396.828343	8079.961385
397.211217	8244.050942
397.594028	8219.097231
397.976778	8423.516019
398.359466	8610.038712
398.742092	8558.366885
399.124656	8789.755846
399.507158	8932.168442
399.889598	9031.479173
400.271977	9285.301269
400.654294	9396.206654
401.036549	9648.516404
401.418742	9653.053442
401.800874	10035.424962
402.182944	10090.121481
402.564952	10582.390154
402.946898	10378.727538
403.328783	10569.283154
403.710606	10758.074365
404.092367	11168.928404
404.474067	11489.545788
404.855705	11428.295769
405.237282	11489.545788
405.618797	12074.319635
406.000250	12192.786750
406.381642	12728.661404
406.762972	12883.172769
407.144240	12687.576000
407.525447	13126.408442
407.906593	12990.045231
408.287677	13305.873519
408.668700	13633.296462
409.049661	13689.505327
409.430560	13799.150423
409.811399	13866.953942
410.192176	14274.531231
410.572891	14302.761692
410.953545	15059.690942
411.334138	14535.158885
411.714669	15309.228058
412.095139	14396.275096
412.475547	15350.061404
412.855894	15018.857596
413.236180	15504.320712
413.616405	15168.831923
413.996568	15549.943154
414.376670	15597.582058
414.756711	15498.019269
415.136691	15839.053327
415.516609	16218.652212
415.896466	16235.540077
416.276262	16760.828308
416.655997	17086.234788
417.035670	17293.930327
417.415283	18472.047981
417.794834	18835.011058
418.174324	18715.031596
418.553753	18649.496596
418.933121	19268.802346
419.312428	18891.219923
419.691674	18883.154077
420.070859	19261.996788
420.449983	19216.374346
420.829045	19918.859135
421.208047	19605.047308
421.586988	20249.306769
421.965867	20915.999365
422.344686	21105.546750
422.723444	21474.307154
423.102141	20228.638038
423.480777	21639.404942
423.859352	21241.909962
424.237866	23011.859077
424.616319	22528.160365
424.994712	23429.266615
425.373044	23466.823212
425.751314	24448.335865
426.129524	23433.803654
426.507673	25155.357692
426.885762	24338.186654
427.263789	25061.844288
427.641756	25064.868981
428.019662	25497.904096
428.397508	25288.696212
428.775292	26254.833346
429.153016	26423.964058
429.530679	26542.935288
429.908282	26793.732692
430.285824	26225.594654
430.663305	27534.026135
431.040726	26882.457000
431.418086	26673.501173
431.795385	27767.683615
432.172624	28433.115923
432.549802	28144.761923
432.926920	28059.566423
433.303977	28157.868923
433.680974	28839.180865
434.057910	28888.836231
434.434786	29151.984462
434.811601	28888.584173
435.188355	30734.150596
435.565050	30228.018750
435.941683	30046.033096
436.318257	31542.751673
436.694770	31847.993538
437.071222	32809.593635
437.447614	31715.411192
437.823946	31984.608808
438.200218	31857.571731
438.576429	31665.251712
438.952580	31805.143731
439.328670	32287.078038
439.704700	32828.245904
440.080670	32207.679865
440.456580	33041.738769
440.832429	33842.021942
441.208218	32067.283731
441.583947	33221.707962
441.959616	33373.698750
442.335224	33569.043462
442.710773	33935.535346
443.086261	34750.185808
443.461689	34259.429481
443.837057	34189.861558
444.212365	35182.212692
444.587612	35501.317731
444.962800	34524.090058
445.337927	35695.402154
445.712995	33939.316212
446.088002	36812.521846
446.462949	37291.179404
446.837837	37593.144519
447.212664	36874.023923
447.587431	40012.646308
447.962139	43966.423269
448.336786	49875.915865
448.711374	51453.040846
449.085901	46583.286231
449.460369	45454.823942
449.834776	43706.803846
450.209124	45972.802500
450.583412	46400.796462
450.957640	49630.663731
451.331808	48199.732212
451.705917	45556.655250
452.079965	45041.449327
452.453954	45026.577923
452.827883	44718.311365
453.201752	44545.147731
453.575562	45455.580115
453.949311	47438.013865
454.323001	47527.242288
454.696632	47043.795635
455.070202	49888.770808
455.443713	49793.493000
455.817164	51277.356635
456.190556	52193.838404
456.563888	52046.636712
456.937160	53277.434423
457.310373	51391.034654
457.683526	52450.685192
458.056619	52290.376500
458.429653	51603.771346
458.802628	52118.221096
459.175542	52268.699538
459.548398	53919.929481
459.921194	56517.636058
460.293930	56618.963250
460.666607	59215.661596
461.039224	61317.570692
461.411782	62431.917750
461.784280	62120.626500
462.156719	62365.626577
462.529099	61988.800327
462.901419	60977.544865
463.273680	59710.198788
463.645882	59349.756288
464.018024	59184.658500
464.390106	59482.338635
464.762130	61127.267135
465.134094	63233.965327
465.505999	65535.000000
465.877845	65535.000000
466.249631	65535.000000
466.621358	65535.000000
466.993026	65535.000000
467.364634	65535.000000
467.736184	65535.000000
468.107674	65535.000000
468.479105	65535.000000
468.850477	65535.000000
469.221790	65535.000000
469.593043	65535.000000
469.964238	65331.085327
470.335373	65178.590423
470.706449	65426.363135
471.077467	65520.632712
471.448425	65535.000000
471.819324	65535.000000
472.190164	65535.000000
472.560945	65535.000000
472.931667	65535.000000
473.302330	65535.000000
473.672934	65535.000000
474.043479	65535.000000
474.413965	65535.000000
474.784393	65535.000000
475.154761	65535.000000
475.525070	65535.000000
475.895321	65535.000000
476.265513	65535.000000
476.635645	65535.000000
477.005719	65535.000000
477.375734	65535.000000
477.745691	65535.000000
478.115588	65535.000000
478.485427	65535.000000
478.855207	65535.000000
479.224928	65535.000000
479.594591	65535.000000
479.964194	65535.000000
480.333739	65535.000000
480.703226	65535.000000
481.072653	65535.000000
481.442022	65535.000000
481.811333	65535.000000
482.180584	65535.000000
482.549777	65535.000000
482.918912	65535.000000
483.287988	65535.000000
483.657005	65535.000000
484.025964	65535.000000
484.394864	65535.000000
484.763706	65535.000000
485.132489	65535.000000
485.501213	65535.000000
485.869879	65535.000000
486.238487	65535.000000
486.607036	65535.000000
486.975527	65535.000000
487.343959	65535.000000
487.712333	65535.000000
488.080648	65535.000000
488.448905	65535.000000
488.817104	65535.000000
489.185244	65535.000000
489.553326	65535.000000
489.921350	65535.000000
490.289315	65535.000000
490.657222	65535.000000
491.025070	65535.000000
491.392861	65535.000000
491.760593	65535.000000
492.128267	65535.000000
492.495883	65535.000000
492.863440	65535.000000
493.230939	65535.000000
493.598380	65535.000000
493.965763	65535.000000
494.333088	65535.000000
494.700354	65535.000000
495.067563	65535.000000
495.434713	65535.000000
495.801805	65535.000000
496.168839	65535.000000
496.535815	65535.000000
496.902733	65535.000000
497.269593	65535.000000
497.636395	65535.000000
498.003139	65535.000000
498.369825	65535.000000
498.736453	65535.000000
499.103023	65535.000000
499.469535	65535.000000
499.835989	65535.000000
500.202385	65535.000000
500.568723	65535.000000
500.935003	65535.000000
501.301226	65535.000000
501.667390	65535.000000
502.033497	65535.000000
502.399546	65535.000000
502.765537	65535.000000
503.131470	65535.000000
503.497345	65535.000000
503.863163	65535.000000
504.228923	65535.000000
504.594625	65535.000000
504.960269	65535.000000
505.325856	65535.000000
505.691385	65535.000000
506.056856	65535.000000
506.422270	65535.000000
506.787625	65535.000000
507.152924	65535.000000
507.518164	65535.000000
507.883347	65535.000000
508.248472	65535.000000
508.613540	65535.000000
508.978550	65535.000000
509.343503	65535.000000
509.708398	65535.000000
510.073236	65535.000000
510.438016	65535.000000
510.802738	65535.000000
511.167403	65535.000000
511.532010	65535.000000
511.896561	65535.000000
512.261053	65535.000000
512.625488	65535.000000
512.989866	65535.000000
513.354186	65535.000000
513.718449	65535.000000
514.082655	65535.000000
514.446803	65535.000000
514.810894	65535.000000
515.174927	65535.000000
515.538904	65535.000000
515.902822	65535.000000
516.266684	65535.000000
516.630488	65535.000000
516.994235	65535.000000
517.357925	65535.000000
517.721558	65535.000000
518.085133	65535.000000
518.448651	65535.000000
518.812112	65535.000000
519.175516	65535.000000
519.538863	65535.000000
519.902152	65535.000000
520.265385	65535.000000
520.628560	65535.000000
520.991678	65535.000000
521.354739	65535.000000
521.717743	65535.000000
522.080690	65535.000000
522.443580	65535.000000
522.806413	65535.000000
523.169189	65535.000000
523.531908	65535.000000
523.894569	65535.000000
524.257174	65535.000000
524.619722	65535.000000
524.982213	65535.000000
525.344647	65535.000000
525.707025	65535.000000
526.069345	65535.000000
526.431608	65535.000000
526.793815	65535.000000
527.155964	65535.000000
527.518057	65535.000000
527.880093	65535.000000
528.242072	65535.000000
528.603995	65535.000000
528.965860	65535.000000
529.327669	65535.000000
529.689421	65535.000000
530.051117	65535.000000
530.412755	65535.000000
530.774337	65535.000000
531.135862	65535.000000
531.497331	65535.000000
531.858743	65535.000000
532.220098	65535.000000
532.581396	65535.000000
532.942638	65535.000000
533.303824	65535.000000
533.664953	65535.000000
534.026025	65535.000000
534.387040	65535.000000
534.747999	65535.000000
535.108902	65535.000000
535.469748	65535.000000
535.830537	65535.000000
536.191270	65535.000000
536.551947	65535.000000
536.912567	65535.000000
537.273131	65535.000000
537.633638	65535.000000
537.994089	65535.000000
538.354483	65535.000000
538.714821	65535.000000
539.075103	65535.000000
539.435328	65535.000000
539.795497	65535.000000
540.155609	65535.000000
540.515665	65535.000000
540.875665	65535.000000
541.235609	65535.000000
541.595496	65535.000000
541.955328	65535.000000
542.315102	65535.000000
542.674821	65535.000000
543.034483	65535.000000
543.394090	65535.000000
543.753640	65535.000000
544.113134	65535.000000
544.472571	65535.000000
544.831953	65535.000000
545.191278	65535.000000
545.550548	65535.000000
545.909761	65535.000000
546.268918	65535.000000
546.628019	65535.000000
546.987064	65535.000000
547.346053	65535.000000
547.704986	65535.000000
548.063863	65535.000000
548.422684	65535.000000
548.781449	65535.000000
549.140158	65535.000000
549.498811	65535.000000
549.857408	65535.000000
550.215949	65535.000000
550.574434	65535.000000
550.932864	65535.000000
551.291237	65535.000000
551.649555	65535.000000
552.007817	65535.000000
552.366022	65535.000000
552.724173	65535.000000
553.082267	65535.000000
553.440305	65535.000000
553.798288	65535.000000
554.156215	65535.000000
554.514086	65535.000000
554.871902	65535.000000
555.229661	65535.000000
555.587365	65535.000000
555.945014	65535.000000
556.302606	65535.000000
556.660143	65535.000000
557.017625	65535.000000
557.375050	65535.000000
557.732421	65535.000000
558.089735	65535.000000
558.446994	65535.000000
558.804197	65535.000000
559.161345	65535.000000
559.518437	65535.000000
559.875474	65535.000000
560.232455	65535.000000
560.589381	65535.000000
560.946251	65535.000000
561.303065	65535.000000
561.659825	65535.000000
562.016528	65535.000000
562.373177	65535.000000
562.729770	65535.000000
563.086307	65535.000000
563.442789	65535.000000
563.799216	65535.000000
564.155587	65535.000000
564.511904	65535.000000
564.868164	65535.000000
565.224370	65535.000000
565.580520	65535.000000
565.936615	65535.000000
566.292654	65535.000000
566.648638	65535.000000
567.004567	65535.000000
567.360441	65535.000000
567.716260	65535.000000
568.072023	65535.000000
568.427732	65535.000000
568.783385	65535.000000
569.138982	65535.000000
569.494525	65535.000000
569.850013	65535.000000
570.205445	65535.000000
570.560823	65535.000000
570.916145	65535.000000
571.271412	65535.000000
571.626625	65535.000000
571.981782	65535.000000
572.336884	65535.000000
572.691931	65535.000000
573.046923	65535.000000
573.401860	65535.000000
573.756743	65535.000000
574.111570	65535.000000
574.466342	65535.000000
574.821059	65535.000000
575.175722	65535.000000
575.530330	65535.000000
575.884882	65535.000000
576.239380	65535.000000
576.593823	65535.000000
576.948211	65535.000000
577.302544	65535.000000
577.656823	65535.000000
578.011047	65535.000000
578.365216	65535.000000
578.719330	65535.000000
579.073389	65535.000000
579.427394	65535.000000
579.781344	65535.000000
580.135239	65535.000000
580.489080	65535.000000
580.842866	65535.000000
581.196597	65535.000000
581.550273	65535.000000
581.903895	65535.000000
582.257463	65535.000000
582.610975	65535.000000
582.964434	65535.000000
583.317837	65535.000000
583.671186	65535.000000
584.024481	65535.000000
584.377721	65535.000000
584.730906	65535.000000
585.084037	65535.000000
585.437113	65535.000000
585.790135	65535.000000
586.143103	65535.000000
586.496016	65535.000000
586.848874	65535.000000
587.201679	65535.000000
587.554428	65535.000000
587.907124	65535.000000
588.259765	65535.000000
588.612352	65535.000000
588.964884	65535.000000
589.317362	65535.000000
589.669786	65535.000000
590.022155	65535.000000
590.374470	65535.000000
590.726731	65535.000000
591.078937	65535.000000
591.431090	65535.000000
591.783188	65535.000000
592.135232	65535.000000
592.487222	65535.000000
592.839157	65535.000000
593.191038	65535.000000
593.542866	65535.000000
593.894639	65535.000000
594.246358	65535.000000
594.598022	65535.000000
594.949633	65535.000000
595.301190	65535.000000
595.652692	65535.000000
596.004141	65535.000000
596.355535	65535.000000
596.706876	65535.000000
597.058162	65535.000000
597.409395	65535.000000
597.760573	65535.000000
598.111698	65535.000000
598.462768	65535.000000
598.813785	65535.000000
599.164748	65535.000000
599.515657	65535.000000
599.866511	65535.000000
600.217312	65535.000000
600.568060	65535.000000
600.918753	65535.000000
601.269392	65535.000000
601.619978	65535.000000
601.970510	65535.000000
602.320988	65535.000000
602.671412	65535.000000
603.021783	65535.000000
603.372100	65535.000000
603.722363	65535.000000
604.072572	65535.000000
604.422728	65535.000000
604.772830	65535.000000
605.122878	65535.000000
605.472872	65535.000000
605.822813	65535.000000
606.172701	65535.000000
606.522534	65535.000000
606.872314	65535.000000
607.222041	65535.000000
607.571714	65535.000000
607.921333	65535.000000
608.270899	65535.000000
608.620411	65535.000000
608.969870	65535.000000
609.319276	65535.000000
609.668627	65535.000000
610.017926	65535.000000
610.367171	65535.000000
610.716362	65535.000000
611.065500	65535.000000
611.414585	65535.000000
611.763616	65535.000000
612.112594	65535.000000
612.461518	65535.000000
612.810389	65535.000000
613.159207	65535.000000
613.507971	65535.000000
613.856682	65535.000000
614.205340	65535.000000
614.553945	65535.000000
614.902496	65535.000000
615.250994	65535.000000
615.599439	65535.000000
615.947830	65535.000000
616.296169	65535.000000
616.644454	65535.000000
616.992686	65535.000000
617.340864	65535.000000
617.688990	65535.000000
618.037063	65535.000000
618.385082	65535.000000
618.733048	65535.000000
619.080961	65535.000000
619.428821	65535.000000
619.776628	65535.000000
620.124382	65535.000000
620.472083	65535.000000
620.819731	65535.000000
621.167326	65535.000000
621.514868	65535.000000
621.862357	65535.000000
622.209793	65535.000000
622.557176	65535.000000
622.904506	65535.000000
623.251783	65535.000000
623.599007	65535.000000
623.946179	65535.000000
624.293297	65535.000000
624.640363	65535.000000
624.987376	65535.000000
625.334336	65535.000000
625.681243	65535.000000
626.028097	65535.000000
626.374899	65535.000000
626.721647	65535.000000
627.068343	65535.000000
627.414987	65535.000000
627.761577	65535.000000
628.108115	65535.000000
628.454600	65535.000000
628.801032	65535.000000
629.147412	65535.000000
629.493739	65535.000000
629.840014	65535.000000
630.186236	65535.000000
630.532405	65535.000000
630.878521	65535.000000
631.224585	65535.000000
631.570597	65535.000000
631.916556	65535.000000
632.262462	65535.000000
632.608316	65535.000000
632.954117	65535.000000
633.299866	65535.000000
633.645562	65535.000000
633.991206	65535.000000
634.336797	65535.000000
634.682336	65535.000000
635.027823	65535.000000
635.373257	65535.000000
635.718639	65535.000000
636.063968	65535.000000
636.409245	65535.000000
636.754470	65535.000000
637.099642	65535.000000
637.444762	65535.000000
637.789829	65535.000000
638.134845	65535.000000
638.479808	65535.000000
638.824719	65535.000000
639.169577	65535.000000
639.514383	65535.000000
639.859137	65535.000000
640.203839	65535.000000
640.548489	65535.000000
640.893086	65535.000000
641.237632	65535.000000
641.582125	65535.000000
641.926566	65535.000000
642.270955	65535.000000
642.615292	65535.000000
642.959576	65535.000000
643.303809	65535.000000
643.647990	65535.000000
643.992118	65535.000000
644.336195	65535.000000
644.680219	65535.000000
645.024192	65535.000000
645.368112	65535.000000
645.711981	65535.000000
646.055797	65535.000000
646.399562	65535.000000
646.743274	65535.000000
647.086935	65535.000000
647.430544	65535.000000
647.774101	65535.000000
648.117606	65535.000000
648.461059	65535.000000
648.804460	65535.000000
649.147810	65535.000000
649.491108	65535.000000
649.834354	65535.000000
650.177548	65535.000000
650.520690	65535.000000
650.863781	65535.000000
651.206820	65535.000000
651.549807	65535.000000
651.892742	65535.000000
652.235626	65535.000000
652.578458	65535.000000
652.921238	65535.000000
653.263967	65535.000000
653.606644	65535.000000
653.949269	65535.000000
654.291843	65535.000000
654.634365	65535.000000
654.976836	65535.000000
655.319255	65535.000000
655.661622	65535.000000
656.003938	65535.000000
656.346203	65535.000000
656.688416	65535.000000
657.030577	65535.000000
657.372687	65535.000000
657.714746	65535.000000
658.056753	65535.000000
658.398708	65535.000000
658.740612	65535.000000
659.082465	65535.000000
659.424266	65535.000000
659.766016	65535.000000
660.107715	65535.000000
660.449362	65535.000000
660.790958	65535.000000
661.132503	65535.000000
661.473996	65535.000000
661.815438	65535.000000
662.156829	65535.000000
662.498168	65535.000000
662.839456	65535.000000
663.180693	65535.000000
663.521879	65535.000000
663.863013	65535.000000
664.204097	65535.000000
664.545129	65535.000000
664.886110	65535.000000
665.227040	65535.000000
665.567918	65535.000000
665.908746	65535.000000
666.249522	65535.000000
666.590248	65535.000000
666.930922	65535.000000
667.271545	65535.000000
667.612118	65535.000000
667.952639	65535.000000
668.293109	65535.000000
668.633528	65535.000000
668.973896	65535.000000
669.314213	65535.000000
669.654480	65535.000000
669.994695	65535.000000
670.334859	65535.000000
670.674973	65535.000000
671.015035	65535.000000
671.355047	65535.000000
671.695008	65535.000000
672.034918	65535.000000
672.374777	65535.000000
672.714585	65535.000000
673.054342	65535.000000
673.394049	65535.000000
673.733705	65535.000000
674.073310	65535.000000
674.412864	65535.000000
674.752368	65535.000000
675.091820	65535.000000
675.431223	65535.000000
675.770574	65535.000000
676.109875	65535.000000
676.449125	65535.000000
676.788324	65535.000000
677.127473	65535.000000
677.466571	65535.000000
677.805619	65535.000000
678.144616	65535.000000
678.483562	65535.000000
678.822458	65535.000000
679.161303	65535.000000
679.500098	65535.000000
679.838842	65535.000000
680.177535	65535.000000
680.516179	65535.000000
680.854771	65535.000000
681.193314	65535.000000
681.531805	65535.000000
681.870247	65535.000000
682.208638	65535.000000
682.546978	65535.000000
682.885268	65535.000000
683.223508	65535.000000
683.561697	65535.000000
683.899836	65535.000000
684.237925	65535.000000
684.575963	65535.000000
684.913951	65535.000000
685.251889	65535.000000
685.589776	65535.000000
685.927614	65535.000000
686.265401	65535.000000
686.603137	65535.000000
686.940824	65535.000000
687.278460	65535.000000
687.616046	65535.000000
687.953582	65535.000000
688.291068	65535.000000
688.628504	65535.000000
688.965889	65535.000000
689.303224	65535.000000
689.640510	65535.000000
689.977745	65535.000000
690.314930	65535.000000
690.652065	65535.000000
690.989150	65535.000000
691.326185	65535.000000
691.663170	65535.000000
692.000105	65535.000000
692.336990	65535.000000
692.673825	65535.000000
693.010610	65535.000000
693.347345	65535.000000
693.684030	65535.000000
694.020665	65535.000000
694.357251	65535.000000
694.693786	65535.000000
695.030272	65535.000000
695.366707	65462.155327
695.703093	65363.096654
696.039429	65299.830173
696.375716	65051.301288
696.711952	64960.308462
697.048139	64858.225096
697.384276	64572.643731
697.720363	64760.930827
698.056400	64452.160154
698.392388	64266.897750
698.728326	64296.640558
699.064214	63988.374000
699.400053	63998.456308
699.735842	63708.589962
700.071581	63261.691673
700.407270	62819.330423
700.742910	62636.336538
701.078501	62326.305577
701.414042	61893.018404
701.749533	61478.887615
702.084974	60837.148731
702.420366	61214.479096
702.755709	60510.229904
703.091002	60125.337808
703.426246	59952.930346
703.761440	59789.596962
704.096584	59283.969231
704.431679	59200.790192
704.766725	58923.778788
705.101721	58837.323000
705.436668	58972.173865
705.771565	58360.681904
706.106413	59055.100846
706.441212	58783.886769
706.775961	59023.089519
707.110661	59142.564865
707.445311	59701.124712
707.779913	59366.140038
708.114465	59755.317115
708.448967	60151.803865
708.783421	61343.532635
709.117825	61437.550154
709.452180	61903.856885
709.786485	62416.542231
710.120742	63493.584750
710.454949	63531.141346
710.789107	64184.726942
711.123216	65087.849654
711.457275	65306.635731
711.791286	65535.000000
712.125247	65535.000000
712.459159	65535.000000
712.793023	65535.000000
713.126837	65535.000000
713.460602	65535.000000
713.794318	65535.000000
714.127985	65454.089481
714.461602	64810.334135
714.795171	64843.101635
715.128691	63495.097096
715.462162	62741.948712
715.795584	62149.361077
716.128957	61731.197365
716.462281	61043.836038
716.795556	60619.118827
717.128782	59820.095942
717.461960	58832.029788
717.795088	58725.913500
718.128167	57678.613788
718.461198	56713.989000
718.794180	56374.719346
719.127113	55616.781865
719.459997	55207.188115
719.792833	54314.903885
720.125619	54125.608558
720.458357	53239.877827
720.791046	52699.214077
721.123686	52191.569885
721.456278	51482.783654
721.788821	51239.547981
722.121315	50582.433577
722.453761	50751.060173
722.786158	50554.707231
723.118506	50553.446942
723.450805	50068.740000
723.783056	50437.500404
724.115259	50086.131981
724.447412	49849.449808
724.779518	50816.091058
725.111574	50615.957250
725.443582	51156.116885
725.775542	51061.091135
726.107453	52326.168692
726.439315	51941.024538
726.771129	52936.148308
727.102895	54116.786538
727.434612	54560.408077
727.766281	55169.631519
728.097901	56049.564923
728.429473	56237.347904
728.760996	56311.452865
729.092471	56740.959173
729.423897	56455.377808
729.755276	56116.360212
730.086606	56143.078327
730.417887	57010.156788
730.749120	57927.646788
731.080305	58586.021481
731.411442	59317.744962
731.742530	59792.621654
732.073570	60012.920077
732.404562	60579.041654
732.735506	60620.379115
733.066401	60665.245385
733.397249	60070.137173
733.728048	59193.732577
734.058798	57643.325712
734.389501	55908.412615
734.720156	54666.272308
735.050762	52847.171942
735.381320	51633.010038
735.711831	50581.677404
736.042293	49153.770577
736.372707	49010.853865
736.703073	48127.643712
737.033391	48636.548192
737.363661	48204.017192
737.693883	48393.312519
738.024056	48785.262231
738.354182	49283.832346
738.684260	50103.271904
739.014290	50790.381173
739.344272	51486.564519
739.674207	52458.246923
740.004093	53113.092808
740.333931	53070.243000
740.663722	53558.982865
740.993464	53606.621769
741.323159	53528.231827
741.652806	52938.920942
741.982405	52374.059654
742.311956	51487.824808
742.641460	51295.252731
742.970915	50476.821404
743.300323	49401.543288
743.629683	48706.872288
743.958996	47769.469731
744.288260	46969.942731
744.617477	45826.861096
744.946647	45573.039000
745.275768	44617.236231
745.604842	43933.655769
745.933869	43309.056808
746.262847	43090.018673
746.591778	42724.535019
746.920662	42308.639827
747.249498	41979.956596
747.578286	42377.703635
747.907027	42707.395096
748.235720	43383.161769
748.564365	43685.378942
748.892963	43585.312038
749.221514	43997.678423
749.550017	43611.778096
749.878473	43520.029096
750.206881	43000.790250
750.535242	42579.853904
750.863555	42465.923827
751.191821	41859.977135
751.520039	42108.001904
751.848210	41700.928731
752.176334	41574.395769
752.504411	41436.268154
752.832440	40967.188788
753.160421	41307.718731
753.488356	40883.001519
753.816243	40390.984904
754.144082	39961.478596
754.471875	39894.683308
754.799620	39578.098846
755.127318	39403.674923
755.454969	39197.239673
755.782572	39195.475269
756.110129	39279.914596
756.437638	38942.913462
756.765100	38844.610962
757.092515	38957.784865
757.419882	38770.253942
757.747203	38724.127385
758.074477	39066.421731
758.401703	38805.794077
758.728882	39418.294269
759.056014	39566.252135
759.383099	39911.067058
759.710138	40477.692750
760.037129	40936.437750
760.364073	41267.893615
760.690970	41136.571558
761.017820	40966.432615
761.344623	41603.886519
761.671379	42355.522558
761.998088	43663.197865
762.324751	46204.947635
762.651366	52249.291096
762.977935	60269.010692
763.304456	65374.439250
763.630931	65535.000000
763.957359	65535.000000
764.283740	65535.000000
764.610074	65409.223212
764.936362	62270.348769
765.262602	58864.293173
765.588796	54260.207365
765.914943	49777.361308
766.241044	45584.381596
766.567097	42352.497865
766.893104	39538.525788
767.219064	37464.343038
767.544978	35716.827058
767.870845	34267.747385
768.196665	33183.143135
768.522438	32337.741635
768.848165	31574.763000
769.173846	30779.520981
769.499479	30274.649423
769.825066	29553.260308
770.150607	28702.061481
770.476101	28554.103615
770.801548	27996.047885
771.126949	27556.963385
771.452303	27112.081558
771.777611	26386.911577
772.102872	26319.360115
772.428087	25912.286942
772.753256	25513.783731
773.078378	25075.203346
773.403453	24577.641462
773.728482	23950.521923
774.053465	23835.331558
774.378401	23323.654442
774.703291	22899.441346
775.028135	22488.335250
775.352932	22310.382519
775.677683	21919.441038
776.002388	21606.889500
776.327046	21515.140500
776.651658	21188.725788
776.976224	20915.243192
777.300743	20773.082654
777.625216	20557.825385
777.949643	20298.710077
778.274024	20325.680250
778.598359	20190.073212
778.922647	20027.496000
779.246889	19810.726385
779.571086	19917.598846
779.895236	19837.444500
780.219339	19762.331308
780.543397	19747.459904
780.867409	20096.055692
781.191374	20097.315981
781.515294	19915.834442
781.839167	20266.446692
782.162995	20273.000192
782.486776	20045.644154
782.810511	19838.452731
783.134201	19651.173865
783.457844	19738.889942
783.781441	19543.797288
784.104993	19318.205654
784.428498	19118.575962
784.751958	19112.778635
785.075372	18914.409231
785.398739	18774.517212
785.722061	18936.338250
786.045337	18795.942115
786.368568	19250.906250
786.691752	19070.937058
787.014891	19688.226346
787.337983	20497.331538
787.661030	21897.512019
787.984031	23807.857269
788.306987	25415.229173
788.629897	26720.635962
788.952760	27059.401500
789.275579	27035.456019
789.598351	26006.052404
789.921078	25031.345308
790.243759	23695.691596
790.566395	22903.726327
790.888984	21859.703365
791.211529	21227.542673
791.534027	20273.756365
791.856480	19454.820923
792.178888	19115.551269
792.501249	18754.856712
792.823566	18134.038615
793.145836	18123.956308
793.468062	17922.814269
793.790241	17624.882077
794.112375	17685.375923
794.434464	18013.302981
794.756507	17975.242269
795.078505	18327.114808
795.400457	19084.044058
795.722364	19849.795327
796.044226	20936.416038
796.366042	21661.333962
796.687812	22024.549096
797.009538	22349.451462
797.331218	22145.788846
797.652852	22123.607769
797.974442	21784.086058
798.295986	21438.010846
798.617484	20900.119731
798.938938	20404.826365
799.260346	20115.464135
799.581709	19535.479385
799.903026	19204.779692
800.224299	18924.995654
800.545526	18343.498558
800.866708	18094.213500
801.187845	17776.620808
801.508936	17398.786327
801.829983	17220.581538
802.150984	16609.089577
802.471940	16532.464038
802.792851	16375.936212
803.113717	16277.381654
803.434538	16090.606904
803.755314	15998.605846
804.076045	15879.130500
804.396731	15621.023423
804.717372	15670.678788
805.037967	15646.985365
805.358518	15693.111923
805.679024	15894.253962
805.999485	15908.873308
806.319901	15932.818788
806.640272	16216.383692
806.960598	16364.341558
807.280879	16289.732481
807.601115	16545.318981
807.921306	16379.212962
808.241453	16378.204731
808.561554	16572.793269
808.881611	16422.062769
809.201623	16373.667692
809.521590	16264.022596
809.841513	16310.905327
810.161390	16398.369346
810.481223	16047.757096
810.801011	15985.750904
811.120755	15944.161385
811.440453	15667.654096
811.760107	15505.328942
812.079716	15467.520288
812.399281	15273.687923
812.718801	15310.236288
813.038276	15191.265058
813.357707	14937.695019
813.677093	15119.932731
813.996434	14776.378096
814.315731	14860.817423
814.634983	14906.439865
814.954191	14842.417212
815.273354	15019.361712
815.592473	15186.223904
815.911547	15518.183885
816.230577	15708.235385
816.549562	16212.098712
816.868502	16524.650250
817.187399	16926.178154
817.506250	17336.023962
817.825058	17466.085731
818.143821	18155.715577
818.462539	18858.452423
818.781213	19626.724269
819.099843	20811.647481
819.418429	23373.057750
819.736970	25775.419615
820.055466	28998.229269
820.373919	32982.001096
820.692327	38028.196096
821.010691	44679.746538
821.329011	57178.027212
821.647286	65535.000000
821.965517	65535.000000
822.283704	65535.000000
822.601847	65535.000000
822.919945	65535.000000
823.237999	65535.000000
823.556010	65535.000000
823.873976	65535.000000
824.191897	65535.000000
824.509775	65535.000000
824.827609	65535.000000
825.145398	65535.000000
825.463144	62830.925077
825.780845	61080.636462
826.098502	61075.847365
826.416116	63651.372865
826.733685	65535.000000
827.051210	65535.000000
827.368692	65535.000000
827.686129	65535.000000
828.003522	65535.000000
828.320872	60631.469654
828.638177	54457.064423
828.955439	47910.117923
829.272656	41553.727038
829.589830	36394.358135
829.906960	31431.846288
830.224046	27859.936731
830.541088	24766.684731
830.858086	22795.593577
831.175041	21217.964481
831.491952	20327.696712
831.808819	19861.137923
832.125642	20283.586615
832.442421	21566.812327
832.759157	24445.311173
833.075849	30302.123712
833.392497	38673.463788
833.709101	47223.512769
834.025662	51202.495500
834.342179	50918.930596
834.658653	46269.474404
834.975083	40625.398558
835.291469	35209.434923
835.607811	30841.527173
835.924110	27467.230846
836.240366	24440.017962
836.556578	21570.845250
836.872746	19282.161404
837.188871	17282.083615
837.504952	15696.388673
837.820990	14448.198981
838.136984	13528.188404
838.452935	12999.875481
838.768842	12596.331115
839.084706	12862.251981
839.400526	14374.850192
839.716303	17884.249442
840.032037	22468.170635
840.347727	25346.921538
840.663373	24657.543750
840.978977	21811.812404
841.294537	18845.849538
841.610054	16550.360135
841.925527	15010.287635
842.240957	13735.379827
842.556344	12676.485462
842.871687	11689.175481
843.186987	10674.139154
843.502244	9908.892000
843.817458	9238.166481
844.132629	8728.757885
844.447756	8376.885346
844.762840	8137.934654
845.077881	7795.388250
845.392879	7626.257538
845.707833	7400.665904
846.022745	7282.450846
846.337613	7206.077365
846.652438	7041.231635
846.967221	6950.742923
847.281960	6856.977462
847.596656	6864.539192
847.911309	6677.008269
848.225919	6628.109077
848.540485	6559.549385
848.855009	6502.584346
849.169490	6465.531865
849.483928	6445.871365
849.798323	6382.604885
850.112675	6319.338404
850.426984	6361.432038
850.741251	6311.020500
851.055474	6267.162462
851.369654	6300.938192
851.683792	6210.953596
851.997887	6245.233442
852.311938	6225.825000
852.625947	6266.406288
852.939914	6227.589404
853.253837	6248.258135
853.567718	6215.742692
853.881555	6150.207692
854.195350	6272.455673
854.509103	6224.564712
854.822812	6202.131577
855.136479	6179.950500
855.450103	6185.495769
855.763685	6145.166538
856.077224	6201.375404
856.390720	6225.068827
856.704173	6221.792077
857.017584	6213.726231
857.330953	6281.025635
857.644278	6319.590462
857.957561	6388.906327
858.270802	6374.539038
858.584000	6417.640904
858.897155	6410.583288
859.210268	6362.440269
859.523339	6289.343538
859.836367	6277.244769
860.149352	6262.877481
860.462295	6231.622327
860.775195	6232.630558
861.088054	6177.934038
861.400869	6206.416558
861.713642	6189.528692
862.026373	6203.391865
862.339062	6220.027673
862.651708	6240.444346
862.964312	6273.463904
863.276873	6302.702596
863.589392	6427.975269
863.901869	6515.943404
864.214303	6612.481500
864.526696	6741.535038
864.839045	6882.939404
865.151353	6975.192519
865.463619	7022.075250
865.775842	7074.251192
866.088023	7075.259423
866.400162	7090.634942
866.712258	7142.558827
867.024313	7144.575288
867.336325	7184.400404
867.648296	7144.575288
867.960224	7170.285173
868.272110	7174.066038
868.583954	7188.937442
868.895755	7209.102058
869.207515	7215.907615
869.519233	7274.385000
869.830909	7320.763615
870.142542	7363.613423
870.454134	7402.934423
870.765684	7509.302769
871.077191	7584.668019
871.388657	7688.767846
871.700081	7700.362500
872.011463	7836.725712
872.322803	7900.244250
872.634101	7984.431519
872.945357	8098.865712
873.256571	8260.938808
873.567744	8356.468673
873.878874	8402.847288
874.189963	8573.994462
874.501010	8549.796923
874.812015	8586.093231
875.122979	8697.250673
875.433900	8774.632385
875.744780	8746.906038
876.055618	8824.539808
876.366415	8871.674596
876.677169	8924.102596
876.987882	8968.716808
877.298554	9148.181885
877.609183	9272.194269
877.919771	9557.775635
878.230317	9862.513385
878.540822	10338.902423
878.851285	11037.606346
879.161707	11903.424519
879.472087	13355.276827
879.782425	15428.955462
880.092722	19591.184135
880.402977	25954.884692
880.713191	35088.951346
881.023363	46097.319000
881.333494	54319.188865
881.643583	58888.490712
881.953631	60110.970519
882.263637	59889.915923
882.573602	58262.127346
882.883526	56023.098865
883.193408	52888.005288
883.503248	48914.567827
883.813048	44718.563423
884.122806	40589.606365
884.432522	36384.275827
884.742197	32520.735519
885.051831	28753.733308
885.361424	25361.036769
885.670975	22462.121250
885.980485	20097.820096
886.289954	18027.418212
886.599382	16419.542192
886.908768	15204.624115
887.218113	13904.762596
887.527417	12956.773615
887.836680	12046.593288
888.145901	11357.971673
888.455082	10789.833635
888.764221	10218.166788
889.073319	9814.874481
889.382376	9448.886712
889.691392	9252.029654
890.000366	9167.590327
890.309300	9046.098519
890.618193	8995.182865
890.927044	8987.369077
891.235855	8952.081000
891.544625	8938.217827
891.853353	9011.314558
892.162041	9233.629442
892.470687	9556.011231
892.779293	10060.882788
893.087858	10703.629904
893.396381	11805.122019
893.704864	13322.005212
894.013306	15564.562500
894.321707	18624.542885
894.630068	21735.690981
894.938387	23657.630885
895.246665	24354.066288
895.554903	23504.883923
895.863100	21817.105615
896.171256	20288.627769
896.479371	18763.930788
896.787446	17351.147423
897.095480	16084.305462
897.403473	15072.797942
897.711425	14011.130942
898.019336	13313.939365
898.327207	12429.973038
898.635038	11680.605519
898.942827	11020.214365
899.250576	10355.790288
899.558284	9795.970154
899.865952	9363.943269
900.173579	8953.341288
900.481165	8580.547962
900.788711	8328.238212
901.096216	8061.057058
901.403681	7898.983962
901.711105	7705.403654
902.018489	7644.657750
902.325832	7660.789442
902.633135	7780.012731
902.940397	8147.260788
903.247619	9130.285788
903.554800	11289.159923
903.861941	15398.708538
904.169041	20441.878846
904.476101	24324.827596
904.783121	25735.846558
905.090100	24815.835981
905.397039	22794.585346
905.703938	20731.745192
906.010796	18697.891673
906.317614	17041.872635
906.624391	15525.997673
906.931129	14249.829577
907.237826	13043.985577
907.544483	11945.266096
907.851099	10876.793538
908.157675	9754.128577
908.464211	8714.390596
908.770707	7967.543654
909.077163	7301.355173
909.383578	6709.271654
909.689954	6317.574000
909.996289	6047.872269
910.302584	5840.176731
910.608839	5723.978135
910.915054	5562.157096
911.221229	5555.099481
911.527363	5519.811404
911.833458	5507.712635
912.139513	5525.860788
912.445527	5579.801135
912.751502	5742.882462
913.057436	5931.673673
913.363331	6127.774558
913.669186	6557.784981
913.975000	7010.984712
914.280775	7755.311077
914.586510	8813.449269
914.892205	10383.264577
915.197859	12420.898962
915.503475	15314.521269
915.809050	18441.296942
916.114585	21189.229904
916.420081	22782.990692
916.725536	23542.944635
917.030952	23085.459923
917.336328	22389.024519
917.641665	21490.186788
917.946961	20223.344827
918.252218	19175.036885
918.557435	17821.487077
918.862612	16561.198615
919.167750	15572.124231
919.472848	14300.997288
919.777906	13231.012385
920.082925	12183.964731
920.387904	11079.699981
920.692843	10247.657538
920.997743	9529.041058
921.302603	8781.942058
921.607423	8338.320519
921.912204	7798.665000
922.216946	7420.074346
922.521647	7065.429173
922.826310	6793.710981
923.130932	6500.063769
923.435516	6220.783846
923.740059	6034.009096
924.044564	5834.379404
924.349028	5635.001769
924.653454	5482.506865
924.957840	5284.893635
925.262186	5129.121981
925.566493	4998.556096
925.870761	4839.507692
926.174989	4732.887288
926.479178	4625.762769
926.783328	4536.030231
927.087438	4448.314154
927.391509	4330.855269
927.695541	4259.018827
927.999533	4161.976615
928.303486	4083.082558
928.607400	4073.504365
928.911275	4032.166904
929.215110	3920.001231
929.518906	3909.666865
929.822663	3911.935385
930.126381	3898.072212
930.430060	3897.316038
930.733699	3897.063981
931.037299	3900.844846
931.340861	3895.299577
931.644383	3896.811923
931.947866	3929.831481
932.251309	3946.719346
932.554714	3923.782096
932.858080	3967.388077
933.161407	3870.345865
933.464694	3896.307808
933.767943	3897.568096
934.071153	3847.408615
934.374323	3800.273827
934.677455	3804.558808
934.980548	3794.224442
935.283602	3800.525885
935.586617	3776.580404
935.889593	3757.424019
936.192530	3771.791308
936.495428	3757.928135
936.798287	3866.312942
937.101108	3879.924058
937.403890	3930.335596
937.706632	4036.703942
938.009336	4212.892269
938.312002	4411.261673
938.614628	4581.652673
938.917216	4732.635231
939.219765	4868.998442
939.522275	4934.533442
939.824747	4973.854442
940.127179	5017.208365
940.429573	5049.975865
940.731929	5035.356519
941.034246	5009.142519
941.336524	5018.216596
941.638763	4978.391481
941.940964	4943.607519
942.243126	4840.263865
942.545250	4774.476808
942.847335	4738.684615
943.149381	4660.546731
943.451389	4549.137231
943.753359	4473.267865
944.055290	4381.266808
944.357182	4341.441692
944.659036	4256.498250
944.960851	4184.157692
945.262628	4149.877846
945.564367	4166.009538
945.866067	4160.968385
946.167729	4146.349038
946.469352	4156.683404
946.770937	4145.340808
947.072484	4108.540385
947.373992	4088.375769
947.675462	4084.846962
947.976893	4050.063000
948.278286	4041.997154
948.579641	4006.204962
948.880958	4018.807846
949.182236	4016.539327
949.483476	3988.812981
949.784678	3967.640135
950.085841	3943.190538
950.386967	3981.755365
950.688054	4012.758462
950.989103	4010.742000
951.290114	4060.145308
951.591087	4110.556846
951.892021	4180.124769
952.192917	4223.730750
952.493776	4332.871731
952.794596	4364.631000
953.095378	4377.990058
953.396122	4431.678346
953.696828	4400.927308
953.997496	4413.782250
954.298126	4374.209192
954.598718	4350.515769
954.899272	4300.608346
955.199788	4193.735885
955.500266	4139.291423
955.800706	4062.917942
956.101108	3967.640135
956.401472	3872.362327
956.701798	3794.224442
957.002087	3679.034077
957.302337	3637.948673
957.602550	3565.104000
957.902724	3468.565904
958.202861	3400.762385
958.502960	3336.235615
958.803022	3283.555558
959.103045	3225.330231
959.403031	3176.431038
959.702979	3182.480423
960.002889	3096.276692
960.302762	3088.210846
960.602596	3058.468038
960.902393	3037.799308
961.202153	3007.048269
961.501875	2983.102788
961.801559	2948.570885
962.101205	2959.661423
962.400814	2922.608942
962.700385	2923.113058
962.999918	2897.403173
963.299414	2858.838346
963.598873	2900.427865
963.898293	2875.978269
964.197677	2846.487519
964.497022	2853.041019
964.796331	2842.958712
965.095601	2826.574962
965.394835	2801.873308
965.694030	2815.484423
965.993189	2808.426808
966.292309	2799.100673
966.591393	2785.741615
966.890439	2814.476192
967.189447	2798.848615
967.488419	2818.005000
967.787353	2850.268385
968.086249	2813.720019
968.385108	2798.344500
968.683930	2833.632577
968.982714	2802.377423
969.281462	2811.199442
969.580172	2861.106865
969.878844	2859.594519
970.177480	2843.210769
970.476078	2871.693288
970.774639	2894.378481
971.073162	2923.869231
971.371649	2915.551327
971.670098	2946.302365
971.968510	2978.061635
972.266885	2960.417596
972.565223	2987.387769
972.863524	2983.102788
973.161788	3000.998885
973.460014	3013.601769
973.758204	3003.771519
974.056356	3030.237577
974.354471	3058.972154
974.652550	3064.769481
974.950591	3049.393962
975.248595	3038.807538
975.546563	3036.539019
975.844493	3014.862058
976.142386	3028.473173
976.440243	2986.127481
976.738062	3004.779750
977.035845	2977.809577
977.333590	2984.867192
977.631299	2959.157308
977.928971	2928.910385
978.226606	2900.175808
978.524204	2911.518404
978.821765	2910.258115
979.119290	2888.329096
979.416777	2905.216962
979.714228	2933.195365
980.011642	2880.515308
980.309020	2934.455654
980.606360	2945.042077
980.903664	3005.535923
981.200931	3047.377500
981.498162	3107.871346
981.795356	3245.998962
982.092513	3408.324115
982.389633	3639.965135
982.686717	3923.782096
982.983764	4163.488962
983.280775	4361.606308
983.577749	4519.142365
983.874686	4568.545673
984.171587	4515.109442
984.468451	4444.281231
984.765279	4305.145385
985.062070	4192.979712
985.358824	4135.762615
985.655543	3983.267712
985.952224	3812.372596
986.248869	3669.203827
986.545478	3494.275788
986.842050	3344.301462
987.138586	3209.450596
987.435086	3092.243769
987.731549	2980.834269
988.027975	2925.885692
988.324366	2857.830115
988.620719	2819.013231
988.917037	2783.473096
989.213318	2741.127404
989.509563	2724.743654
989.805772	2683.154135
990.101944	2710.628423
990.398080	2688.195288
990.694180	2686.682942
990.990244	2667.022442
991.286271	2682.650019
991.582262	2709.620192
991.878217	2708.107846
992.174136	2689.707635
992.470019	2701.554346
992.765865	2709.368135
993.061676	2722.727192
993.357450	2730.540981
993.653188	2748.941192
993.948890	2751.209712
994.244556	2826.574962
994.540186	2867.660365
994.835780	2899.671692
995.131337	2983.354846
995.426859	3082.917635
995.722345	3219.028788
996.017795	3302.964000
996.313208	3432.521654
996.608586	3545.695558
996.903928	3639.461019
997.199234	3646.266577
997.494504	3674.244981
997.789738	3649.795385
998.084936	3623.329327
998.380099	3524.018596
998.675225	3434.538115
998.970316	3399.754154
999.265371	3314.306596
999.560390	3201.384750
999.855373	3121.230404
1000.150320	3006.796212
1000.445232	2939.748865
1000.740108	2886.312635
1001.034948	2834.892865
1001.329752	2784.985442
1001.624521	2772.130500
1001.919254	2745.916500
1002.213951	2690.715865
1002.508613	2680.885615
1002.803239	2658.452481
1003.097829	2665.258038
1003.392384	2640.304327
1003.686903	2625.432923
1003.981386	2602.747731
1004.275834	2612.073865
1004.570246	2598.462750
1004.864623	2610.309462
1005.158964	2569.980231
1005.453270	2588.380442
1005.747540	2559.393808
1006.041775	2588.380442
1006.335974	2556.621173
1006.630138	2548.303269
1006.924266	2556.369115
1007.218359	2580.062538
1007.512416	2577.037846
1007.806438	2568.972000
1008.100425	2535.448327
1008.394376	2564.182904
1008.688292	2518.560462
1008.982172	2542.758000
1009.276017	2571.240519
1009.569827	2540.993596
1009.863602	2531.919519
1010.157341	2534.440096
1010.451045	2553.848538
1010.744714	2548.303269
1011.038347	2513.771365
1011.331945	2520.072808
1011.625508	2532.927750
1011.919036	2526.626308
1012.212528	2515.031654
1012.505986	2523.853673
1012.799408	2519.064577
1013.092795	2508.982269
1013.386147	2525.366019
1013.679464	2526.878365
1013.972745	2500.916423
1014.265992	2530.155115
1014.559204	2538.473019
1014.852380	2506.209635
1015.145521	2523.601615
1015.438628	2516.291942
1015.731699	2499.404077
1016.024736	2508.730212
1016.317737	2510.242558
1016.610703	2541.245654
1016.903635	2531.415404
1017.196531	2512.259019
1017.489393	2532.171577
1017.782219	2543.262115
1018.075011	2539.985365
1018.367768	2565.695250
1018.660490	2558.385577
1018.953177	2558.385577
1019.245829	2558.385577
