Dividing Wavelength (nm)	Counts (n)	Blue Motor Position (mm): 47.900000	Red Motor Position (mm): 0.000000	
326.493990	1.000054
326.888308	1.000054
327.282561	1.000054
327.676750	1.001500
328.070874	1.000633
328.464933	1.000771
328.858929	1.001053
329.252859	1.000079
329.646726	0.999177
330.040528	0.999438
330.434265	1.001165
330.827938	0.998726
331.221547	0.999488
331.615091	0.999783
332.008571	1.001676
332.401986	0.999618
332.795338	1.000014
333.188625	1.000690
333.581847	0.999337
333.975006	1.000575
334.368100	0.999917
334.761129	0.998169
335.154095	0.999720
335.546996	0.999417
335.939833	0.998451
336.332606	1.000668
336.725315	0.999230
337.117960	1.000180
337.510540	0.998943
337.903056	0.999945
338.295508	1.001640
338.687896	1.000105
339.080220	1.000399
339.472480	0.999649
339.864676	1.000363
340.256807	0.999344
340.648875	1.001211
341.040879	0.999483
341.432818	1.001599
341.824694	0.999850
342.216506	1.000933
342.608253	1.000615
342.999937	0.998955
343.391557	1.000602
343.783113	1.001791
344.174605	1.000756
344.566033	0.999765
344.957397	1.000481
345.348697	1.000347
345.739934	0.999839
346.131106	0.999685
346.522215	0.999862
346.913260	1.000886
347.304241	1.000137
347.695159	0.999638
348.086012	1.000225
348.476802	1.001215
348.867528	0.999010
349.258191	1.001584
349.648789	1.000706
350.039324	1.000501
350.429796	0.998697
350.820203	0.999420
351.210548	1.000171
351.600828	1.000778
351.991045	0.999966
352.381198	1.000780
352.771288	0.999384
353.161314	1.000583
353.551276	1.000226
353.941175	0.997958
354.331010	1.001543
354.720782	1.000019
355.110490	0.999860
355.500135	1.000389
355.889717	0.998861
356.279235	0.999233
356.668689	1.001097
357.058080	0.998676
357.447408	0.999428
357.836672	0.999196
358.225873	0.999607
358.615010	0.999709
359.004084	0.999063
359.393095	1.000155
359.782043	0.999599
360.170927	1.001526
360.559748	1.000199
360.948505	0.999979
361.337199	1.000274
361.725830	1.000769
362.114398	1.000493
362.502903	0.998953
362.891344	0.998548
363.279722	0.999511
363.668037	1.001435
364.056289	1.000147
364.444478	1.000857
364.832603	0.999753
365.220665	0.999260
365.608665	0.999674
365.996601	0.999019
366.384474	0.998636
366.772284	0.998801
367.160031	0.999038
367.547715	0.997905
367.935336	0.997948
368.322893	0.997627
368.710388	0.996921
369.097820	0.994964
369.485189	0.993196
369.872495	0.993459
370.259738	0.990811
370.646918	0.989032
371.034035	0.987814
371.421090	0.987037
371.808081	0.983826
372.195010	0.982721
372.581875	0.980026
372.968678	0.978973
373.355418	0.978097
373.742096	0.975308
374.128710	0.974881
374.515262	0.974384
374.901751	0.972610
375.288177	0.972286
375.674540	0.972064
376.060841	0.971337
376.447079	0.969310
376.833254	0.969106
377.219367	0.970021
377.605417	0.967393
377.991404	0.968787
378.377329	0.968721
378.763191	0.968525
379.148991	0.968361
379.534727	0.969110
379.920402	0.969037
380.306013	0.970098
380.691563	0.970132
381.077049	0.971538
381.462474	0.973060
381.847835	0.972675
382.233134	0.974423
382.618371	0.978232
383.003545	0.977371
383.388657	0.978144
383.773706	0.979684
384.158693	0.982403
384.543618	0.985193
384.928480	0.984519
385.313280	0.985416
385.698017	0.987012
386.082692	0.987665
386.467305	0.987953
386.851856	0.991716
387.236344	0.991693
387.620770	0.993840
388.005133	0.993453
388.389435	0.993595
388.773674	0.994487
389.157851	0.995625
389.541965	0.996595
389.926018	0.997335
390.310008	0.997124
390.693936	0.998635
391.077802	0.998318
391.461606	0.998464
391.845348	0.999167
392.229027	0.998883
392.612645	0.999511
392.996200	0.999259
393.379694	0.999253
393.763125	1.000136
394.146494	0.999538
394.529801	0.999262
394.913047	0.998675
395.296230	0.999217
395.679351	1.000128
396.062410	1.000049
396.445408	0.999413
396.828343	1.001030
397.211217	1.000331
397.594028	0.999858
397.976778	1.000232
398.359466	0.999618
398.742092	1.001179
399.124656	1.000435
399.507158	0.998551
399.889598	1.000684
400.271977	0.999902
400.654294	1.000981
401.036549	1.001310
401.418742	1.000758
401.800874	1.000160
402.182944	0.998928
402.564952	0.999905
402.946898	1.000204
403.328783	1.000767
403.710606	0.999596
404.092367	1.000888
404.474067	1.001526
404.855705	1.000746
405.237282	0.999783
405.618797	1.000443
406.000250	0.999191
406.381642	0.999909
406.762972	1.001032
407.144240	1.000706
407.525447	0.999639
407.906593	1.000140
408.287677	1.000597
408.668700	1.000563
409.049661	1.000754
409.430560	0.999742
409.811399	0.999853
410.192176	1.000686
410.572891	1.000794
410.953545	0.999975
411.334138	1.000707
411.714669	0.999895
412.095139	1.001063
412.475547	1.000531
412.855894	1.000456
413.236180	1.000067
413.616405	1.000319
413.996568	1.000572
414.376670	0.999830
414.756711	0.999960
415.136691	1.000567
415.516609	1.000173
415.896466	1.000115
416.276262	0.999140
416.655997	1.000298
417.035670	1.001018
417.415283	1.000056
417.794834	1.000652
418.174324	1.000516
418.553753	0.999306
418.933121	1.000632
419.312428	1.000638
419.691674	1.001393
420.070859	1.000826
420.449983	1.000457
420.829045	0.999249
421.208047	1.001179
421.586988	0.999755
421.965867	0.999741
422.344686	1.000192
422.723444	0.999394
423.102141	1.000995
423.480777	0.999354
423.859352	0.999943
424.237866	1.000741
424.616319	1.000874
424.994712	0.999977
425.373044	0.999987
425.751314	1.001201
426.129524	1.001085
426.507673	0.999379
426.885762	1.000140
427.263789	0.999729
427.641756	1.000095
428.019662	0.999745
428.397508	1.000491
428.775292	1.000020
429.153016	0.999957
429.530679	1.000802
429.908282	1.000352
430.285824	0.999875
430.663305	1.001036
431.040726	1.000706
431.418086	1.000697
431.795385	1.001577
432.172624	1.000741
432.549802	1.000283
432.926920	1.000712
433.303977	1.000778
433.680974	1.000344
434.057910	1.000209
434.434786	1.000051
434.811601	1.000847
435.188355	1.001326
435.565050	1.000427
435.941683	1.000873
436.318257	1.000213
436.694770	1.000300
437.071222	1.001469
437.447614	1.000384
437.823946	1.000744
438.200218	1.000679
438.576429	1.000162
438.952580	0.999444
439.328670	0.999823
439.704700	0.999903
440.080670	1.000612
440.456580	1.000402
440.832429	1.000894
441.208218	1.001070
441.583947	1.000527
441.959616	0.999869
442.335224	1.001687
442.710773	1.001245
443.086261	1.000323
443.461689	1.000567
443.837057	1.000693
444.212365	1.000781
444.587612	1.000829
444.962800	1.000771
445.337927	1.001442
445.712995	1.000869
446.088002	1.000351
446.462949	1.000852
446.837837	1.001443
447.212664	1.000345
447.587431	1.000529
447.962139	1.000651
448.336786	0.999720
448.711374	1.000558
449.085901	1.000857
449.460369	1.000698
449.834776	1.000548
450.209124	1.000934
450.583412	1.000084
450.957640	1.000267
451.331808	1.001110
451.705917	1.000432
452.079965	1.000990
452.453954	1.001165
452.827883	1.000565
453.201752	1.000448
453.575562	0.999899
453.949311	1.000346
454.323001	0.999721
454.696632	1.000200
455.070202	1.000416
455.443713	1.000195
455.817164	1.000291
456.190556	0.999999
456.563888	1.000972
456.937160	1.000796
457.310373	1.000009
457.683526	1.000865
458.056619	1.000939
458.429653	1.000149
458.802628	1.001183
459.175542	1.000473
459.548398	1.000405
459.921194	1.000301
460.293930	1.001467
460.666607	1.000966
461.039224	1.000511
461.411782	1.000755
461.784280	1.000646
462.156719	1.001371
462.529099	1.000570
462.901419	1.000554
463.273680	0.999545
463.645882	1.000847
464.018024	1.001202
464.390106	0.999805
464.762130	1.000062
465.134094	1.000371
465.505999	1.000223
465.877845	1.000041
466.249631	1.000927
466.621358	0.999922
466.993026	1.000116
467.364634	1.000494
467.736184	1.000606
468.107674	1.000821
468.479105	1.000352
468.850477	1.000681
469.221790	1.001270
469.593043	1.000907
469.964238	1.000240
470.335373	1.000187
470.706449	1.000448
471.077467	1.000287
471.448425	1.001165
471.819324	1.001279
472.190164	1.000927
472.560945	1.000893
472.931667	1.000959
473.302330	1.001243
473.672934	1.001272
474.043479	1.000877
474.413965	1.000831
474.784393	1.000546
475.154761	1.000208
475.525070	1.000293
475.895321	1.001309
476.265513	1.001137
476.635645	1.001068
477.005719	1.000933
477.375734	1.001012
477.745691	1.000677
478.115588	1.000316
478.485427	1.000758
478.855207	1.000661
479.224928	1.000451
479.594591	1.000914
479.964194	1.000612
480.333739	1.000788
480.703226	1.000621
481.072653	0.999894
481.442022	1.001215
481.811333	1.000816
482.180584	1.001370
482.549777	1.000861
482.918912	1.000563
483.287988	1.000981
483.657005	1.000776
484.025964	1.000650
484.394864	1.000677
484.763706	1.000889
485.132489	1.000856
485.501213	1.000910
485.869879	1.000854
486.238487	0.999647
486.607036	1.001359
486.975527	1.001285
487.343959	0.999781
487.712333	1.000348
488.080648	1.000067
488.448905	1.001243
488.817104	1.000689
489.185244	1.000689
489.553326	1.000468
489.921350	1.001260
490.289315	1.000579
490.657222	0.999832
491.025070	1.001061
491.392861	1.001166
491.760593	1.001358
492.128267	1.000810
492.495883	1.000360
492.863440	1.000922
493.230939	1.001033
493.598380	1.000828
493.965763	1.000622
494.333088	0.999875
494.700354	0.999960
495.067563	1.000673
495.434713	1.000690
495.801805	1.000482
496.168839	1.000909
496.535815	1.000369
496.902733	1.000562
497.269593	1.000227
497.636395	1.000458
498.003139	1.000190
498.369825	1.001209
498.736453	1.000725
499.103023	1.001271
499.469535	1.000912
499.835989	1.000553
500.202385	1.000835
500.568723	1.000892
500.935003	1.000540
501.301226	1.000968
501.667390	0.999777
502.033497	1.000850
502.399546	1.000311
502.765537	1.000684
503.131470	1.001172
503.497345	1.000718
503.863163	1.000289
504.228923	1.000454
504.594625	1.000352
504.960269	1.000426
505.325856	1.001513
505.691385	1.000761
506.056856	1.000557
506.422270	1.000374
506.787625	1.001369
507.152924	1.000863
507.518164	1.000102
507.883347	1.000675
508.248472	1.001489
508.613540	1.000450
508.978550	1.000651
509.343503	1.001302
509.708398	1.001089
510.073236	1.000782
510.438016	0.999844
510.802738	1.000276
511.167403	1.000596
511.532010	1.000415
511.896561	1.000590
512.261053	1.001110
512.625488	1.000290
512.989866	1.001133
513.354186	1.000003
513.718449	1.000729
514.082655	1.000197
514.446803	1.000071
514.810894	1.001056
515.174927	1.000752
515.538904	1.001762
515.902822	1.000935
516.266684	1.001251
516.630488	1.000343
516.994235	1.001059
517.357925	1.001469
517.721558	1.000483
518.085133	1.000551
518.448651	1.000926
518.812112	1.001029
519.175516	1.000871
519.538863	1.000366
519.902152	1.001030
520.265385	1.001101
520.628560	1.000476
520.991678	1.000644
521.354739	1.001487
521.717743	1.000531
522.080690	1.000460
522.443580	1.000746
522.806413	1.000387
523.169189	1.001498
523.531908	0.999904
523.894569	1.000716
524.257174	1.000837
524.619722	1.000041
524.982213	1.000845
525.344647	1.000793
525.707025	1.000051
526.069345	1.000408
526.431608	1.001267
526.793815	1.000803
527.155964	1.001203
527.518057	1.000373
527.880093	1.000821
528.242072	1.000511
528.603995	1.000543
528.965860	1.001541
529.327669	1.001667
529.689421	1.000148
530.051117	1.000714
530.412755	1.000842
530.774337	1.000379
531.135862	1.001191
531.497331	0.999990
531.858743	1.001268
532.220098	0.999437
532.581396	1.000824
532.942638	1.000778
533.303824	1.001512
533.664953	1.000516
534.026025	1.001539
534.387040	1.000906
534.747999	1.000182
535.108902	1.000785
535.469748	1.001396
535.830537	1.001596
536.191270	1.000623
536.551947	1.000176
536.912567	1.000646
537.273131	1.001139
537.633638	1.000824
537.994089	1.001624
538.354483	1.000736
538.714821	1.001132
539.075103	1.001645
539.435328	1.000775
539.795497	1.002179
540.155609	1.000827
540.515665	1.001263
540.875665	1.000781
541.235609	1.001096
541.595496	0.999980
541.955328	1.000725
542.315102	1.001052
542.674821	1.000858
543.034483	1.000660
543.394090	1.000122
543.753640	1.000345
544.113134	1.000204
544.472571	1.001695
544.831953	1.000690
545.191278	1.000907
545.550548	1.000048
545.909761	1.000347
546.268918	1.001298
546.628019	1.000995
546.987064	1.000541
547.346053	1.000141
547.704986	1.001085
548.063863	1.000875
548.422684	1.000237
548.781449	1.000964
549.140158	1.000686
549.498811	1.000201
549.857408	1.000019
550.215949	1.000774
550.574434	0.999986
550.932864	1.000995
551.291237	1.000711
551.649555	1.000959
552.007817	1.000439
552.366022	1.000944
552.724173	1.001050
553.082267	1.000875
553.440305	1.000286
553.798288	1.000330
554.156215	1.000872
554.514086	1.000695
554.871902	1.000202
555.229661	1.000333
555.587365	1.000233
555.945014	1.001018
556.302606	1.000346
556.660143	1.001345
557.017625	1.001589
557.375050	1.001245
557.732421	1.000819
558.089735	1.000391
558.446994	1.000742
558.804197	1.001214
559.161345	1.000478
559.518437	1.000250
559.875474	1.001446
560.232455	1.000995
560.589381	1.001730
560.946251	1.000815
561.303065	1.001216
561.659825	1.000244
562.016528	1.001212
562.373177	1.000480
562.729770	1.000232
563.086307	0.999920
563.442789	1.001517
563.799216	0.999727
564.155587	1.000747
564.511904	1.000799
564.868164	1.000084
565.224370	1.000070
565.580520	1.000957
565.936615	1.001079
566.292654	1.000613
566.648638	1.001548
567.004567	1.000227
567.360441	1.000418
567.716260	1.000806
568.072023	1.000444
568.427732	1.000713
568.783385	1.000549
569.138982	1.000888
569.494525	1.000344
569.850013	1.000488
570.205445	1.000222
570.560823	1.000330
570.916145	1.000332
571.271412	1.000787
571.626625	1.000560
571.981782	1.000608
572.336884	1.000913
572.691931	1.000363
573.046923	1.000530
573.401860	1.000682
573.756743	1.001232
574.111570	1.000030
574.466342	1.001087
574.821059	1.000736
575.175722	1.000811
575.530330	1.000826
575.884882	1.001296
576.239380	1.001156
576.593823	1.000207
576.948211	1.001228
577.302544	1.000514
577.656823	1.000656
578.011047	1.000462
578.365216	1.001058
578.719330	1.000985
579.073389	0.999683
579.427394	1.000862
579.781344	1.001249
580.135239	0.999443
580.489080	1.000781
580.842866	1.000886
581.196597	1.000573
581.550273	1.000252
581.903895	1.001307
582.257463	1.000674
582.610975	0.999837
582.964434	1.000686
583.317837	1.000635
583.671186	1.000863
584.024481	1.000360
584.377721	1.000705
584.730906	1.000671
585.084037	1.001402
585.437113	1.001165
585.790135	1.000924
586.143103	0.999842
586.496016	1.000822
586.848874	1.000472
587.201679	1.000455
587.554428	1.000355
587.907124	1.001407
588.259765	1.000592
588.612352	1.000778
588.964884	1.000994
589.317362	1.000481
589.669786	1.000588
590.022155	1.000022
590.374470	1.000666
590.726731	0.999864
591.078937	1.000711
591.431090	1.000357
591.783188	1.000251
592.135232	1.001422
592.487222	1.000904
592.839157	1.000385
593.191038	1.000229
593.542866	1.000720
593.894639	1.000121
594.246358	1.000728
594.598022	1.000484
594.949633	1.000376
595.301190	1.000514
595.652692	1.000513
596.004141	1.000229
596.355535	1.000039
596.706876	1.000838
597.058162	1.000591
597.409395	1.000550
597.760573	1.000563
598.111698	1.000501
598.462768	1.000086
598.813785	0.999796
599.164748	0.999919
599.515657	1.000074
599.866511	1.000149
600.217312	1.001302
600.568060	1.000539
600.918753	1.000587
601.269392	1.000420
601.619978	1.000462
601.970510	0.999952
602.320988	1.000332
602.671412	1.000466
603.021783	1.000573
603.372100	1.000604
603.722363	1.000482
604.072572	0.999940
604.422728	1.000474
604.772830	1.000002
605.122878	1.000133
605.472872	1.001506
605.822813	1.000681
606.172701	1.000624
606.522534	1.000861
606.872314	1.001706
607.222041	1.000014
607.571714	1.000621
607.921333	1.001077
608.270899	1.000224
608.620411	1.001013
608.969870	1.000855
609.319276	1.000938
609.668627	1.000832
610.017926	1.000451
610.367171	1.000801
610.716362	1.000215
611.065500	1.000432
611.414585	1.000540
611.763616	1.001260
612.112594	1.001414
612.461518	0.999341
612.810389	1.000449
613.159207	1.000712
613.507971	0.999342
613.856682	1.001043
614.205340	0.999768
614.553945	1.000811
614.902496	1.000531
615.250994	1.000712
615.599439	1.001262
615.947830	1.000680
616.296169	1.000833
616.644454	1.000383
616.992686	1.001120
617.340864	0.999973
617.688990	1.000469
618.037063	1.000694
618.385082	0.999634
618.733048	1.000205
619.080961	1.000152
619.428821	1.000892
619.776628	0.999861
620.124382	1.001138
620.472083	1.001133
620.819731	1.001612
621.167326	1.000445
621.514868	1.000363
621.862357	1.001176
622.209793	1.000734
622.557176	1.000438
622.904506	0.999890
623.251783	1.000346
623.599007	1.000635
623.946179	0.999718
624.293297	1.000126
624.640363	1.000903
624.987376	0.999586
625.334336	1.000218
625.681243	1.000405
626.028097	1.000496
626.374899	1.000326
626.721647	1.001087
627.068343	1.000503
627.414987	1.000596
627.761577	1.000101
628.108115	1.000278
628.454600	1.001292
628.801032	1.001002
629.147412	1.000333
629.493739	1.000704
629.840014	0.999819
630.186236	0.999906
630.532405	1.000086
630.878521	1.000218
631.224585	1.000531
631.570597	1.000747
631.916556	1.000944
632.262462	0.999561
632.608316	1.000472
632.954117	1.000134
633.299866	0.999850
633.645562	1.000326
633.991206	1.000359
634.336797	1.000314
634.682336	1.001896
635.027823	1.000390
635.373257	1.000530
635.718639	1.000676
636.063968	1.000851
636.409245	0.999900
636.754470	1.000490
637.099642	1.001127
637.444762	1.000748
637.789829	1.000408
638.134845	0.999407
638.479808	1.000427
638.824719	1.000768
639.169577	1.000341
639.514383	1.000632
639.859137	1.000348
640.203839	0.999933
640.548489	1.000460
640.893086	1.000481
641.237632	1.000975
641.582125	1.000173
641.926566	1.001721
642.270955	1.000008
642.615292	1.000344
642.959576	1.000078
643.303809	1.000757
643.647990	1.000437
643.992118	1.001055
644.336195	0.999511
644.680219	1.000914
645.024192	1.000301
645.368112	1.000266
645.711981	0.999936
646.055797	1.000827
646.399562	0.999472
646.743274	1.001324
647.086935	0.999567
647.430544	0.999208
647.774101	0.999977
648.117606	1.000918
648.461059	1.000713
648.804460	1.001383
649.147810	0.999990
649.491108	1.000592
649.834354	1.000650
650.177548	1.000041
650.520690	1.000236
650.863781	1.000065
651.206820	1.000145
651.549807	1.000971
651.892742	1.001573
652.235626	1.000434
652.578458	1.000376
652.921238	1.000769
653.263967	1.000363
653.606644	1.000198
653.949269	1.000902
654.291843	0.999804
654.634365	1.001068
654.976836	0.999681
655.319255	1.001121
655.661622	1.000906
656.003938	1.000850
656.346203	0.999664
656.688416	1.001061
657.030577	1.000543
657.372687	1.000745
657.714746	0.999871
658.056753	1.000115
658.398708	0.999776
658.740612	1.001379
659.082465	1.000739
659.424266	1.000451
659.766016	0.999375
660.107715	1.000544
660.449362	1.000681
660.790958	0.999278
661.132503	1.000573
661.473996	0.999998
661.815438	1.000574
662.156829	1.000962
662.498168	1.000707
662.839456	0.999500
663.180693	1.000625
663.521879	1.000297
663.863013	1.000992
664.204097	0.999333
664.545129	1.000156
664.886110	1.000166
665.227040	1.000980
665.567918	0.999642
665.908746	1.000263
666.249522	0.999903
666.590248	1.000152
666.930922	0.999751
667.271545	1.000990
667.612118	1.000366
667.952639	1.000464
668.293109	0.999935
668.633528	1.000084
668.973896	1.000577
669.314213	0.999664
669.654480	1.000120
669.994695	0.999912
670.334859	1.000531
670.674973	1.000538
671.015035	1.000409
671.355047	0.999882
671.695008	1.000188
672.034918	1.000330
672.374777	1.000982
672.714585	0.999723
673.054342	1.000601
673.394049	1.000136
673.733705	0.999790
674.073310	1.000161
674.412864	1.000251
674.752368	0.999505
675.091820	1.001074
675.431223	1.000771
675.770574	0.999983
676.109875	1.000557
676.449125	0.999774
676.788324	0.999935
677.127473	1.000676
677.466571	1.000799
677.805619	1.000463
678.144616	1.000709
678.483562	1.000359
678.822458	1.000698
679.161303	1.000023
679.500098	1.001208
679.838842	1.001282
680.177535	0.999143
680.516179	0.999465
680.854771	0.999927
681.193314	0.999723
681.531805	1.000014
681.870247	0.999635
682.208638	1.000295
682.546978	0.999584
682.885268	1.000067
683.223508	0.999997
683.561697	1.000150
683.899836	1.000251
684.237925	0.999762
684.575963	1.000354
684.913951	0.999417
685.251889	0.999683
685.589776	1.000131
685.927614	1.000036
686.265401	1.000384
686.603137	1.000097
686.940824	1.000092
687.278460	1.000593
687.616046	1.000296
687.953582	0.999993
688.291068	1.000921
688.628504	1.000322
688.965889	1.000233
689.303224	0.998074
689.640510	1.000420
689.977745	0.999991
690.314930	1.000185
690.652065	0.999792
690.989150	1.000211
691.326185	1.000137
691.663170	1.000252
692.000105	1.000546
692.336990	0.999743
692.673825	0.999933
693.010610	1.000158
693.347345	0.999953
693.684030	0.999270
694.020665	0.999867
694.357251	0.999938
694.693786	0.999829
695.030272	0.998903
695.366707	0.999736
695.703093	1.000157
696.039429	0.999167
696.375716	0.999894
696.711952	0.999548
697.048139	1.000645
697.384276	1.000248
697.720363	1.000010
698.056400	0.998448
698.392388	0.999395
698.728326	0.999914
699.064214	1.000778
699.400053	1.000159
699.735842	1.000779
700.071581	1.000016
700.407270	1.000396
700.742910	1.000707
701.078501	0.999970
701.414042	1.001245
701.749533	0.999318
702.084974	1.000145
702.420366	1.000282
702.755709	0.999424
703.091002	1.000356
703.426246	1.000413
703.761440	0.999586
704.096584	0.998884
704.431679	0.999422
704.766725	0.999265
705.101721	1.000137
705.436668	0.999756
705.771565	0.999795
706.106413	0.998374
706.441212	0.999521
706.775961	0.999915
707.110661	0.999622
707.445311	0.999333
707.779913	1.000773
708.114465	1.000991
708.448967	1.000324
708.783421	1.000025
709.117825	0.999756
709.452180	1.000424
709.786485	0.999795
710.120742	0.999296
710.454949	0.999249
710.789107	0.999598
711.123216	0.999620
711.457275	0.998819
711.791286	0.999295
712.125247	1.001085
712.459159	0.999525
712.793023	0.998984
713.126837	0.999995
713.460602	0.999291
713.794318	0.998727
714.127985	0.998970
714.461602	0.999656
714.795171	0.998751
715.128691	0.999074
715.462162	0.999685
715.795584	0.999396
716.128957	1.000417
716.462281	1.000055
716.795556	0.999942
717.128782	1.000140
717.461960	0.999174
717.795088	0.999196
718.128167	1.001295
718.461198	1.000136
718.794180	1.000513
719.127113	0.999853
719.459997	0.999710
719.792833	0.999512
720.125619	0.999359
720.458357	0.999864
720.791046	0.999668
721.123686	0.999444
721.456278	0.999001
721.788821	0.999663
722.121315	1.001095
722.453761	1.000145
722.786158	0.999049
723.118506	0.999400
723.450805	0.998854
723.783056	1.000465
724.115259	0.999946
724.447412	1.000768
724.779518	1.000609
725.111574	0.998684
725.443582	0.999849
725.775542	0.999912
726.107453	1.000461
726.439315	1.000636
726.771129	1.000058
727.102895	1.000336
727.434612	1.000387
727.766281	0.999032
728.097901	0.999125
728.429473	1.000214
728.760996	0.998710
729.092471	0.999246
729.423897	0.999594
729.755276	0.999182
730.086606	0.999662
730.417887	0.999804
730.749120	0.999097
731.080305	0.999728
731.411442	0.998760
731.742530	0.999826
732.073570	0.998437
732.404562	1.000092
732.735506	0.999420
733.066401	0.998922
733.397249	0.999238
733.728048	0.999170
734.058798	0.999703
734.389501	1.000120
734.720156	1.000581
735.050762	1.000152
735.381320	0.999519
735.711831	0.999027
736.042293	0.999364
736.372707	1.000300
736.703073	0.998535
737.033391	0.999584
737.363661	0.999224
737.693883	0.999502
738.024056	0.999139
738.354182	1.000712
738.684260	0.999422
739.014290	0.999529
739.344272	0.999895
739.674207	0.999585
740.004093	1.000048
740.333931	1.000364
740.663722	0.998979
740.993464	1.000220
741.323159	0.998936
741.652806	0.999721
741.982405	1.000243
742.311956	1.000212
742.641460	1.000046
742.970915	0.999674
743.300323	0.999857
743.629683	0.999719
743.958996	1.000863
744.288260	0.999262
744.617477	1.000003
744.946647	0.999010
745.275768	1.000568
745.604842	0.999691
745.933869	0.999535
746.262847	0.999585
746.591778	0.998975
746.920662	0.999601
747.249498	1.000337
747.578286	1.001087
747.907027	1.000008
748.235720	1.000837
748.564365	1.000301
748.892963	0.999175
749.221514	0.999700
749.550017	0.999055
749.878473	0.999684
750.206881	1.000562
750.535242	1.000327
750.863555	0.999521
751.191821	1.000001
751.520039	0.998946
751.848210	0.998169
752.176334	0.999948
752.504411	0.999557
752.832440	0.999351
753.160421	0.999520
753.488356	0.999415
753.816243	0.998899
754.144082	0.999891
754.471875	1.000116
754.799620	0.999386
755.127318	0.999767
755.454969	0.999186
755.782572	1.000662
756.110129	0.999569
756.437638	1.000851
756.765100	1.000525
757.092515	0.998884
757.419882	0.998832
757.747203	1.000379
758.074477	1.000923
758.401703	0.999880
758.728882	0.999816
759.056014	0.999860
759.383099	0.999943
759.710138	0.999362
760.037129	0.998955
760.364073	0.999656
760.690970	0.999289
761.017820	0.999019
761.344623	1.000552
761.671379	1.000341
761.998088	0.999877
762.324751	0.999059
762.651366	0.998785
762.977935	0.999081
763.304456	1.000055
763.630931	0.998047
763.957359	0.998050
764.283740	0.999198
764.610074	0.998978
764.936362	0.999109
765.262602	1.000146
765.588796	1.000543
765.914943	0.999936
766.241044	0.999795
766.567097	0.999203
766.893104	0.999157
767.219064	0.998720
767.544978	1.000120
767.870845	0.999700
768.196665	1.000022
768.522438	0.999655
768.848165	0.998993
769.173846	1.000290
769.499479	1.000242
769.825066	1.000559
770.150607	1.000200
770.476101	1.001359
770.801548	1.000328
771.126949	1.000763
771.452303	0.999742
771.777611	1.000279
772.102872	0.999424
772.428087	0.999830
772.753256	1.000414
773.078378	1.000353
773.403453	0.999014
773.728482	1.001372
774.053465	0.999366
774.378401	1.000373
774.703291	0.999763
775.028135	1.001384
775.352932	0.998717
775.677683	1.000134
776.002388	0.999629
776.327046	1.000162
776.651658	1.000708
776.976224	1.000014
777.300743	0.999158
777.625216	0.998825
777.949643	1.000302
778.274024	0.999456
778.598359	0.999133
778.922647	0.999988
779.246889	1.000019
779.571086	0.998898
779.895236	0.999688
780.219339	0.999933
780.543397	0.998809
780.867409	1.000139
781.191374	1.000021
781.515294	0.999797
781.839167	1.000278
782.162995	1.000002
782.486776	0.999223
782.810511	1.000360
783.134201	0.999881
783.457844	1.000468
783.781441	0.999558
784.104993	0.999359
784.428498	0.999996
784.751958	1.001306
785.075372	1.000222
785.398739	1.000314
785.722061	0.998595
786.045337	0.999671
786.368568	0.998882
786.691752	0.999939
787.014891	0.999461
787.337983	1.000104
787.661030	0.999610
787.984031	1.000425
788.306987	1.001103
788.629897	0.998885
788.952760	0.998898
789.275579	1.000001
789.598351	0.999603
789.921078	1.000912
790.243759	0.999759
790.566395	0.999365
790.888984	0.999874
791.211529	0.999955
791.534027	1.000202
791.856480	0.999446
792.178888	0.999179
792.501249	0.999561
792.823566	0.999667
793.145836	0.999118
793.468062	0.999301
793.790241	0.999823
794.112375	0.998136
794.434464	1.000347
794.756507	0.999442
795.078505	0.999602
795.400457	0.999414
795.722364	1.000253
796.044226	1.000610
796.366042	0.999189
796.687812	0.998281
797.009538	0.998927
797.331218	1.001113
797.652852	1.000108
797.974442	1.000191
798.295986	0.999022
798.617484	0.999901
798.938938	1.000330
799.260346	1.000190
799.581709	0.998406
799.903026	1.000292
800.224299	0.999402
800.545526	1.000070
800.866708	0.999400
801.187845	0.999568
801.508936	0.999872
801.829983	0.999757
802.150984	0.998839
802.471940	0.999947
802.792851	0.999113
803.113717	1.000722
803.434538	0.999304
803.755314	1.001816
804.076045	0.999598
804.396731	0.999950
804.717372	0.999192
805.037967	1.000796
805.358518	1.000830
805.679024	0.998692
805.999485	1.000605
806.319901	0.999242
806.640272	1.000556
806.960598	0.999828
807.280879	0.998782
807.601115	1.000873
807.921306	1.000463
808.241453	0.998731
808.561554	0.999438
808.881611	1.000996
809.201623	0.999551
809.521590	0.999572
809.841513	1.000995
810.161390	0.999651
810.481223	0.999511
810.801011	0.999634
811.120755	1.000007
811.440453	0.999339
811.760107	0.999614
812.079716	0.999836
812.399281	1.000100
812.718801	0.999755
813.038276	0.999388
813.357707	1.000500
813.677093	1.000680
813.996434	0.999746
814.315731	1.000754
814.634983	1.000021
814.954191	1.000748
815.273354	0.999396
815.592473	0.999582
815.911547	1.000605
816.230577	0.999660
816.549562	0.999548
816.868502	0.999071
817.187399	1.001559
817.506250	0.999974
817.825058	0.999033
818.143821	1.000145
818.462539	0.999458
818.781213	0.999530
819.099843	0.999696
819.418429	0.999842
819.736970	0.999802
820.055466	0.998875
820.373919	0.999049
820.692327	0.999455
821.010691	0.999305
821.329011	0.998743
821.647286	0.998363
821.965517	0.997372
822.283704	0.998138
822.601847	0.998013
822.919945	0.997561
823.237999	0.997765
823.556010	0.997962
823.873976	0.998930
824.191897	0.998996
824.509775	0.999536
824.827609	0.999841
825.145398	0.999498
825.463144	0.997496
825.780845	0.998030
826.098502	0.998938
826.416116	0.998964
826.733685	0.999307
827.051210	0.998121
827.368692	0.998647
827.686129	0.998251
828.003522	1.000050
828.320872	0.998343
828.638177	0.999391
828.955439	0.999974
829.272656	1.000591
829.589830	0.999759
829.906960	1.000225
830.224046	0.999553
830.541088	1.000057
830.858086	0.999540
831.175041	1.000346
831.491952	0.999302
831.808819	0.999576
832.125642	1.000061
832.442421	1.000799
832.759157	1.000864
833.075849	1.000410
833.392497	0.999648
833.709101	0.998151
834.025662	0.999816
834.342179	0.999316
834.658653	1.001000
834.975083	0.999929
835.291469	1.000163
835.607811	0.998624
835.924110	0.999874
836.240366	1.000649
836.556578	0.999903
836.872746	1.000360
837.188871	0.999306
837.504952	0.998698
837.820990	0.999259
838.136984	0.999129
838.452935	0.998832
838.768842	1.000455
839.084706	0.999747
839.400526	1.000185
839.716303	0.998007
840.032037	1.000986
840.347727	0.999737
840.663373	1.000048
840.978977	0.999734
841.294537	1.000289
841.610054	1.000642
841.925527	1.000898
842.240957	0.999865
842.556344	0.999006
842.871687	0.999458
843.186987	0.999425
843.502244	0.998981
843.817458	0.999034
844.132629	0.999620
844.447756	1.000208
844.762840	1.000408
845.077881	1.001123
845.392879	0.999258
845.707833	1.000578
846.022745	0.999700
846.337613	0.999778
846.652438	0.999180
846.967221	0.999562
847.281960	0.999688
847.596656	0.999520
847.911309	0.999669
848.225919	0.998756
848.540485	1.000364
848.855009	1.000808
849.169490	0.999790
849.483928	1.000044
849.798323	0.999007
850.112675	1.000496
850.426984	0.999915
850.741251	0.999221
851.055474	0.999896
851.369654	1.000152
851.683792	0.999757
851.997887	0.999683
852.311938	0.999818
852.625947	0.999028
852.939914	0.999329
853.253837	1.000596
853.567718	0.999240
853.881555	0.999921
854.195350	1.000040
854.509103	0.999491
854.822812	0.999732
855.136479	1.000153
855.450103	1.000608
855.763685	1.000563
856.077224	0.999994
856.390720	0.999454
856.704173	1.001432
857.017584	1.000570
857.330953	1.000154
857.644278	0.999881
857.957561	0.999121
858.270802	1.000877
858.584000	1.000441
858.897155	0.998378
859.210268	0.999874
859.523339	1.000691
859.836367	0.998884
860.149352	0.999137
860.462295	0.999192
860.775195	1.000323
861.088054	1.000610
861.400869	0.999327
861.713642	0.998690
862.026373	1.000080
862.339062	0.999618
862.651708	1.000661
862.964312	1.000733
863.276873	1.000323
863.589392	0.999738
863.901869	0.999253
864.214303	1.000516
864.526696	1.000073
864.839045	1.000307
865.151353	1.000302
865.463619	0.999118
865.775842	0.999766
866.088023	1.000384
866.400162	0.999471
866.712258	1.000679
867.024313	0.999515
867.336325	1.000571
867.648296	1.000392
867.960224	1.000110
868.272110	1.001393
868.583954	1.000910
868.895755	1.001259
869.207515	0.999595
869.519233	1.001484
869.830909	0.999775
870.142542	0.999809
870.454134	1.000683
870.765684	0.999766
871.077191	1.001537
871.388657	1.001194
871.700081	1.001282
872.011463	1.000050
872.322803	1.000309
872.634101	0.999469
872.945357	1.000098
873.256571	0.999662
873.567744	1.000580
873.878874	0.999878
874.189963	0.999759
874.501010	1.002291
874.812015	0.999551
875.122979	1.000699
875.433900	1.000945
875.744780	1.000489
876.055618	1.000133
876.366415	0.999218
876.677169	1.000141
876.987882	1.000384
877.298554	1.001224
877.609183	1.000476
877.919771	1.000601
878.230317	0.999989
878.540822	0.999980
878.851285	1.000296
879.161707	1.000525
879.472087	1.001528
879.782425	0.998605
880.092722	0.999903
880.402977	0.999501
880.713191	0.998536
881.023363	0.998523
881.333494	0.998174
881.643583	0.999125
881.953631	0.999517
882.263637	0.998376
882.573602	0.998976
882.883526	0.999389
883.193408	1.000269
883.503248	0.998318
883.813048	0.999108
884.122806	0.999752
884.432522	0.999269
884.742197	1.001144
885.051831	0.999338
885.361424	0.999959
885.670975	1.001200
885.980485	0.999545
886.289954	0.999159
886.599382	0.999078
886.908768	1.000849
887.218113	0.999451
887.527417	0.999788
887.836680	0.999938
888.145901	1.000768
888.455082	1.002296
888.764221	1.000681
889.073319	0.999735
889.382376	1.000720
889.691392	0.999333
890.000366	0.999573
890.309300	0.999994
890.618193	0.999992
890.927044	0.999699
891.235855	1.000392
891.544625	1.000146
891.853353	1.000139
892.162041	0.998779
892.470687	1.001133
892.779293	0.999719
893.087858	0.999570
893.396381	0.999532
893.704864	0.999408
894.013306	0.999244
894.321707	0.999529
894.630068	0.998324
894.938387	1.000121
895.246665	1.000146
895.554903	0.999155
895.863100	0.999920
896.171256	1.000212
896.479371	0.999308
896.787446	0.999587
897.095480	0.999720
897.403473	0.999188
897.711425	1.000049
898.019336	0.999874
898.327207	1.000328
898.635038	0.998988
898.942827	1.000191
899.250576	0.999852
899.558284	1.000666
899.865952	0.999380
900.173579	0.999731
900.481165	1.000035
900.788711	0.999996
901.096216	0.998860
901.403681	1.000124
901.711105	1.000121
902.018489	0.999345
902.325832	0.999908
902.633135	0.999954
902.940397	1.000553
903.247619	1.000334
903.554800	0.999701
903.861941	0.999850
904.169041	0.999265
904.476101	0.999966
904.783121	0.999504
905.090100	0.999799
905.397039	1.000209
905.703938	0.999179
906.010796	0.998509
906.317614	0.999392
906.624391	1.000177
906.931129	1.000914
907.237826	0.999780
907.544483	0.999868
907.851099	0.999464
908.157675	1.000324
908.464211	1.000138
908.770707	0.999680
909.077163	0.999542
909.383578	0.999641
909.689954	1.001022
909.996289	1.000894
910.302584	1.000837
910.608839	1.001527
910.915054	0.999821
911.221229	1.000577
911.527363	1.000258
911.833458	1.000255
912.139513	0.999498
912.445527	1.000344
912.751502	1.000485
913.057436	0.998838
913.363331	1.000148
913.669186	1.000849
913.975000	0.999432
914.280775	0.999931
914.586510	1.000350
914.892205	0.999607
915.197859	1.000110
915.503475	0.999646
915.809050	0.998884
916.114585	0.997946
916.420081	0.999639
916.725536	1.000463
917.030952	0.998471
917.336328	0.999321
917.641665	0.998521
917.946961	0.999516
918.252218	0.999131
918.557435	0.999394
918.862612	1.001083
919.167750	1.000024
919.472848	1.001436
919.777906	1.001401
920.082925	1.000963
920.387904	1.000510
920.692843	0.999292
920.997743	0.998296
921.302603	0.999932
921.607423	0.999471
921.912204	1.000104
922.216946	1.000456
922.521647	1.001737
922.826310	0.999908
923.130932	1.000599
923.435516	1.000234
923.740059	0.999810
924.044564	0.999987
924.349028	0.998625
924.653454	1.001171
924.957840	1.000507
925.262186	0.999677
925.566493	0.999216
925.870761	1.000143
926.174989	0.999484
926.479178	1.000218
926.783328	1.000611
927.087438	1.000363
927.391509	0.999269
927.695541	0.999969
927.999533	0.999635
928.303486	0.999205
928.607400	0.999414
928.911275	1.000036
929.215110	1.000271
929.518906	0.999405
929.822663	1.000814
930.126381	1.001662
930.430060	1.000081
930.733699	1.000340
931.037299	1.000053
931.340861	1.001248
931.644383	0.999339
931.947866	1.000009
932.251309	1.000324
932.554714	0.999458
932.858080	1.001038
933.161407	0.998725
933.464694	1.000601
933.767943	0.999302
934.071153	1.001076
934.374323	1.000073
934.677455	0.999798
934.980548	0.999691
935.283602	1.000129
935.586617	0.999809
935.889593	1.000672
936.192530	1.000483
936.495428	0.999498
936.798287	1.000123
937.101108	1.001048
937.403890	0.999563
937.706632	1.001093
938.009336	1.000073
938.312002	1.000222
938.614628	1.000469
938.917216	0.999410
939.219765	1.000449
939.522275	1.001064
939.824747	1.000050
940.127179	0.999221
940.429573	1.001467
940.731929	0.998790
941.034246	1.000292
941.336524	0.998708
941.638763	0.998715
941.940964	0.998390
942.243126	1.000266
942.545250	0.999315
942.847335	0.999601
943.149381	1.000875
943.451389	1.000174
943.753359	1.000674
944.055290	1.001394
944.357182	1.000338
944.659036	1.000652
944.960851	1.000866
945.262628	1.000926
945.564367	1.000253
945.866067	1.000109
946.167729	1.000102
946.469352	1.000245
946.770937	0.998089
947.072484	1.000371
947.373992	1.000393
947.675462	0.998991
947.976893	0.999982
948.278286	1.000568
948.579641	1.000282
948.880958	0.998722
949.182236	0.999633
949.483476	1.001647
949.784678	1.000985
950.085841	1.000677
950.386967	0.999199
950.688054	1.001033
950.989103	0.998488
951.290114	1.000285
951.591087	0.999538
951.892021	0.999911
952.192917	0.999437
952.493776	0.999956
952.794596	1.000201
953.095378	1.000396
953.396122	0.999210
953.696828	1.000566
953.997496	1.000084
954.298126	1.002266
954.598718	0.999720
954.899272	1.000874
955.199788	0.999446
955.500266	1.000693
955.800706	1.000337
956.101108	1.000385
956.401472	1.001742
956.701798	0.999568
957.002087	1.000259
957.302337	0.999958
957.602550	1.000077
957.902724	1.000485
958.202861	0.999076
958.502960	0.999223
958.803022	1.001332
959.103045	1.000062
959.403031	1.000010
959.702979	1.000688
960.002889	0.998371
960.302762	0.998930
960.602596	1.000133
960.902393	1.000309
961.202153	0.999951
961.501875	1.000927
961.801559	1.000421
962.101205	0.999513
962.400814	1.000812
962.700385	1.001380
962.999918	1.000453
963.299414	0.997738
963.598873	0.999579
963.898293	0.998892
964.197677	0.999891
964.497022	1.001581
964.796331	0.999892
965.095601	1.000720
965.394835	0.999033
965.694030	1.000311
965.993189	0.999337
966.292309	1.001261
966.591393	0.999212
966.890439	1.000941
967.189447	0.999048
967.488419	1.001168
967.787353	0.999251
968.086249	0.999468
968.385108	0.999995
968.683930	1.000686
968.982714	1.000405
969.281462	0.999349
969.580172	0.999790
969.878844	1.001086
970.177480	1.000375
970.476078	1.001254
970.774639	1.000545
971.073162	0.999287
971.371649	0.999270
971.670098	0.999749
971.968510	0.999467
972.266885	0.999465
972.565223	0.998961
972.863524	0.998956
973.161788	0.999916
973.460014	1.001476
973.758204	0.999410
974.056356	0.999628
974.354471	0.999751
974.652550	1.001254
974.950591	0.999011
975.248595	0.999786
975.546563	1.001273
975.844493	1.001048
976.142386	0.999130
976.440243	1.001006
976.738062	1.000012
977.035845	0.999162
977.333590	1.001850
977.631299	0.999570
977.928971	1.000484
978.226606	1.000518
978.524204	1.000016
978.821765	1.001615
979.119290	1.000044
979.416777	1.000417
979.714228	0.998640
980.011642	1.001829
980.309020	1.000142
980.606360	1.000374
980.903664	1.000668
981.200931	0.999413
981.498162	1.000718
981.795356	1.000465
982.092513	0.999983
982.389633	1.000428
982.686717	0.998897
982.983764	1.000453
983.280775	1.000845
983.577749	1.001331
983.874686	0.999736
984.171587	1.000224
984.468451	0.999453
984.765279	1.001083
985.062070	1.000675
985.358824	0.999874
985.655543	1.000434
985.952224	1.000171
986.248869	1.000861
986.545478	1.002427
986.842050	0.999941
987.138586	1.000015
987.435086	0.998552
987.731549	1.001871
988.027975	1.000453
988.324366	0.999520
988.620719	1.001408
988.917037	0.999975
989.213318	1.001099
989.509563	1.000416
989.805772	1.000012
990.101944	1.001302
990.398080	1.000955
990.694180	1.000142
990.990244	0.999022
991.286271	1.000528
991.582262	1.000249
991.878217	1.000511
992.174136	1.001216
992.470019	0.999609
992.765865	1.001508
993.061676	1.000096
993.357450	1.000204
993.653188	1.001623
993.948890	1.000022
994.244556	1.000850
994.540186	0.999867
994.835780	0.998916
995.131337	1.000947
995.426859	1.000742
995.722345	0.999470
996.017795	0.999470
996.313208	1.000363
996.608586	1.000121
996.903928	1.000099
997.199234	1.000029
997.494504	1.000809
997.789738	0.999997
998.084936	0.999812
998.380099	0.999752
998.675225	0.999988
998.970316	1.001141
999.265371	1.000302
999.560390	1.000367
999.855373	1.000068
1000.150320	0.999956
1000.445232	1.001439
1000.740108	1.000663
1001.034948	0.999620
1001.329752	1.000937
1001.624521	0.999687
1001.919254	1.000195
1002.213951	1.001105
1002.508613	0.999470
1002.803239	1.000121
1003.097829	1.000955
1003.392384	1.000082
1003.686903	1.000685
1003.981386	1.000627
1004.275834	1.000775
1004.570246	0.999004
1004.864623	1.001341
1005.158964	1.001021
1005.453270	0.999315
1005.747540	1.000336
1006.041775	1.000802
1006.335974	1.000300
1006.630138	0.999629
1006.924266	0.998644
1007.218359	0.998323
1007.512416	1.001471
1007.806438	1.000151
1008.100425	1.000597
1008.394376	1.001780
1008.688292	0.998898
1008.982172	1.000242
1009.276017	1.001402
1009.569827	1.000772
1009.863602	0.998606
1010.157341	1.000884
1010.451045	0.999589
1010.744714	1.001447
1011.038347	1.001072
1011.331945	0.999130
1011.625508	1.000370
1011.919036	1.000106
1012.212528	1.001182
1012.505986	0.999930
1012.799408	1.001496
1013.092795	1.000363
1013.386147	0.999187
1013.679464	1.000793
1013.972745	1.000094
1014.265992	1.000260
1014.559204	0.999993
1014.852380	1.000177
1015.145521	1.000117
1015.438628	0.999592
1015.731699	0.999887
1016.024736	1.000178
1016.317737	1.000117
1016.610703	1.000104
1016.903635	1.000304
1017.196531	0.998894
1017.489393	1.000406
1017.782219	0.999077
1018.075011	1.000340
1018.367768	0.999630
1018.660490	1.001325
1018.953177	1.001325
1019.245829	1.001325
