Dividing Wavelength (nm)	Counts (n)	Blue Motor Position (mm): 48.200000	Red Motor Position (mm): 0.000000	
326.493990	0.998944
326.888308	0.998944
327.282561	0.998944
327.676750	0.999110
328.070874	1.000894
328.464933	1.001402
328.858929	1.001735
329.252859	1.000356
329.646726	0.999416
330.040528	0.999230
330.434265	1.000254
330.827938	1.000429
331.221547	1.000736
331.615091	1.001030
332.008571	1.001202
332.401986	0.999427
332.795338	0.999529
333.188625	1.000446
333.581847	0.998527
333.975006	1.000118
334.368100	1.000716
334.761129	0.999911
335.154095	1.001008
335.546996	1.000725
335.939833	0.999265
336.332606	1.000104
336.725315	0.999304
337.117960	1.001760
337.510540	0.998332
337.903056	1.000193
338.295508	1.000060
338.687896	1.000186
339.080220	1.000302
339.472480	0.999648
339.864676	1.000683
340.256807	1.000330
340.648875	1.000733
341.040879	1.000555
341.432818	1.000717
341.824694	1.000489
342.216506	1.001382
342.608253	1.000678
342.999937	1.000044
343.391557	1.000519
343.783113	1.002134
344.174605	1.000236
344.566033	0.998753
344.957397	1.000919
345.348697	0.999926
345.739934	1.001066
346.131106	0.999593
346.522215	0.999266
346.913260	0.999923
347.304241	0.999868
347.695159	1.000672
348.086012	1.000413
348.476802	1.001400
348.867528	0.999693
349.258191	1.000476
349.648789	1.001459
350.039324	0.999739
350.429796	0.999953
350.820203	0.998367
351.210548	0.999597
351.600828	0.999854
351.991045	1.000410
352.381198	1.000290
352.771288	1.001026
353.161314	0.999499
353.551276	0.999504
353.941175	0.997628
354.331010	1.000861
354.720782	0.999684
355.110490	1.000276
355.500135	1.000126
355.889717	1.000380
356.279235	0.999530
356.668689	1.000497
357.058080	0.999191
357.447408	0.998798
357.836672	1.000782
358.225873	0.999504
358.615010	1.000473
359.004084	0.998613
359.393095	0.999728
359.782043	0.999099
360.170927	1.000574
360.559748	1.000762
360.948505	1.000466
361.337199	0.999624
361.725830	1.000486
362.114398	1.000940
362.502903	0.999717
362.891344	0.999650
363.279722	0.998882
363.668037	1.000718
364.056289	0.999424
364.444478	1.000046
364.832603	0.999791
365.220665	0.999679
365.608665	1.000296
365.996601	0.998879
366.384474	0.999692
366.772284	1.000204
367.160031	0.999887
367.547715	0.999454
367.935336	0.998496
368.322893	0.998024
368.710388	0.996432
369.097820	0.996147
369.485189	0.992815
369.872495	0.993665
370.259738	0.992273
370.646918	0.989944
371.034035	0.989923
371.421090	0.988775
371.808081	0.986137
372.195010	0.984289
372.581875	0.983302
372.968678	0.982679
373.355418	0.981488
373.742096	0.980301
374.128710	0.977928
374.515262	0.979067
374.901751	0.978125
375.288177	0.977045
375.674540	0.977143
376.060841	0.975555
376.447079	0.975598
376.833254	0.974552
377.219367	0.975229
377.605417	0.973903
377.991404	0.974727
378.377329	0.976085
378.763191	0.975056
379.148991	0.975673
379.534727	0.975359
379.920402	0.975644
380.306013	0.976855
380.691563	0.978932
381.077049	0.978599
381.462474	0.980061
381.847835	0.979114
382.233134	0.981565
382.618371	0.982954
383.003545	0.982595
383.388657	0.984503
383.773706	0.985040
384.158693	0.987227
384.543618	0.989061
384.928480	0.988502
385.313280	0.989898
385.698017	0.989731
386.082692	0.991226
386.467305	0.992480
386.851856	0.994737
387.236344	0.993849
387.620770	0.995195
388.005133	0.995811
388.389435	0.995055
388.773674	0.997219
389.157851	0.997870
389.541965	0.998278
389.926018	0.997507
390.310008	0.997813
390.693936	0.998627
391.077802	0.999530
391.461606	0.998411
391.845348	1.000237
392.229027	0.998117
392.612645	0.999699
392.996200	0.999934
393.379694	0.999356
393.763125	1.000125
394.146494	0.999522
394.529801	1.000268
394.913047	0.999028
395.296230	0.999628
395.679351	1.000263
396.062410	1.000650
396.445408	0.999363
396.828343	1.000497
397.211217	1.000904
397.594028	1.000106
397.976778	1.000412
398.359466	0.999160
398.742092	1.001133
399.124656	1.000017
399.507158	0.999587
399.889598	1.000486
400.271977	1.000382
400.654294	1.000040
401.036549	1.000396
401.418742	1.000620
401.800874	1.000166
402.182944	0.999056
402.564952	1.000771
402.946898	0.999771
403.328783	1.000265
403.710606	1.000303
404.092367	1.000251
404.474067	1.000999
404.855705	1.000895
405.237282	0.999703
405.618797	1.000158
406.000250	1.000183
406.381642	0.999778
406.762972	1.001090
407.144240	1.001050
407.525447	0.998729
407.906593	0.999163
408.287677	0.999686
408.668700	1.000423
409.049661	1.000785
409.430560	0.999855
409.811399	1.000115
410.192176	0.999845
410.572891	1.000394
410.953545	0.999565
411.334138	1.000210
411.714669	1.000087
412.095139	1.000385
412.475547	1.000915
412.855894	1.000073
413.236180	0.999960
413.616405	1.001189
413.996568	1.000128
414.376670	0.999778
414.756711	0.999086
415.136691	1.000557
415.516609	1.000180
415.896466	1.000908
416.276262	0.999482
416.655997	1.000358
417.035670	1.000763
417.415283	1.000350
417.794834	1.001166
418.174324	1.000937
418.553753	1.000054
418.933121	1.000095
419.312428	1.001597
419.691674	1.001508
420.070859	1.001117
420.449983	1.001424
420.829045	1.000289
421.208047	1.000892
421.586988	0.999856
421.965867	0.999154
422.344686	1.000597
422.723444	1.000199
423.102141	1.000071
423.480777	0.999863
423.859352	0.999903
424.237866	1.000671
424.616319	1.000532
424.994712	1.000216
425.373044	1.000012
425.751314	1.000145
426.129524	1.000528
426.507673	0.999687
426.885762	1.000134
427.263789	1.000521
427.641756	1.000521
428.019662	1.001162
428.397508	1.000469
428.775292	1.000023
429.153016	0.999597
429.530679	1.000492
429.908282	1.000195
430.285824	0.999792
430.663305	1.000578
431.040726	0.999922
431.418086	1.000753
431.795385	1.001086
432.172624	1.001021
432.549802	0.999447
432.926920	1.000913
433.303977	1.001218
433.680974	1.000506
434.057910	1.000672
434.434786	1.000037
434.811601	1.000093
435.188355	1.000055
435.565050	1.000620
435.941683	0.999864
436.318257	0.999426
436.694770	1.000443
437.071222	1.001246
437.447614	0.999908
437.823946	1.000142
438.200218	1.000552
438.576429	1.000240
438.952580	1.001190
439.328670	0.999932
439.704700	0.999793
440.080670	1.000745
440.456580	1.000466
440.832429	1.000331
441.208218	1.000161
441.583947	1.001184
441.959616	0.999339
442.335224	1.001403
442.710773	1.001148
443.086261	1.000368
443.461689	1.000479
443.837057	1.000114
444.212365	1.001199
444.587612	1.001032
444.962800	1.000609
445.337927	1.001581
445.712995	1.000372
446.088002	1.000427
446.462949	0.999763
446.837837	1.000822
447.212664	0.999773
447.587431	1.001029
447.962139	1.000922
448.336786	0.999620
448.711374	1.000180
449.085901	1.000656
449.460369	1.000162
449.834776	1.000259
450.209124	0.999741
450.583412	1.000449
450.957640	1.000191
451.331808	1.001222
451.705917	1.000829
452.079965	0.999757
452.453954	1.001411
452.827883	0.999967
453.201752	1.001071
453.575562	0.999886
453.949311	0.999848
454.323001	1.000997
454.696632	1.000706
455.070202	1.000541
455.443713	1.000307
455.817164	1.000481
456.190556	1.000074
456.563888	1.001458
456.937160	1.000955
457.310373	1.000005
457.683526	1.000239
458.056619	1.000619
458.429653	0.999649
458.802628	1.000707
459.175542	1.001108
459.548398	1.000423
459.921194	1.001099
460.293930	1.001301
460.666607	1.001219
461.039224	1.000602
461.411782	1.000653
461.784280	1.000362
462.156719	1.001494
462.529099	1.001427
462.901419	1.000629
463.273680	0.999313
463.645882	1.000412
464.018024	1.000631
464.390106	1.000793
464.762130	1.001224
465.134094	1.000650
465.505999	1.000450
465.877845	1.000258
466.249631	1.000640
466.621358	0.999966
466.993026	1.000807
467.364634	1.000565
467.736184	1.001041
468.107674	1.000626
468.479105	1.000355
468.850477	1.000867
469.221790	1.000947
469.593043	1.000109
469.964238	1.000590
470.335373	1.000183
470.706449	1.000360
471.077467	0.999639
471.448425	1.001067
471.819324	1.000988
472.190164	1.000462
472.560945	1.000871
472.931667	1.001122
473.302330	1.000872
473.672934	1.001321
474.043479	1.000774
474.413965	1.000910
474.784393	1.000542
475.154761	1.000665
475.525070	1.000375
475.895321	1.001020
476.265513	1.000592
476.635645	1.001168
477.005719	1.000100
477.375734	1.000382
477.745691	1.000799
478.115588	1.000893
478.485427	1.000846
478.855207	1.000800
479.224928	1.000139
479.594591	1.001169
479.964194	1.000885
480.333739	1.000620
480.703226	1.000318
481.072653	1.000525
481.442022	1.000847
481.811333	1.000597
482.180584	1.000337
482.549777	1.000478
482.918912	1.000204
483.287988	1.000214
483.657005	1.000525
484.025964	1.000033
484.394864	1.000350
484.763706	1.000081
485.132489	1.000705
485.501213	1.000380
485.869879	1.000428
486.238487	0.999661
486.607036	1.001253
486.975527	1.000677
487.343959	1.000380
487.712333	1.000213
488.080648	1.000290
488.448905	1.000807
488.817104	1.000023
489.185244	1.000408
489.553326	1.000617
489.921350	1.000912
490.289315	1.000400
490.657222	1.000125
491.025070	1.001212
491.392861	1.000449
491.760593	1.000105
492.128267	1.000417
492.495883	0.999888
492.863440	0.999891
493.230939	1.000540
493.598380	1.000571
493.965763	0.999998
494.333088	0.999948
494.700354	0.999689
495.067563	0.999831
495.434713	1.000503
495.801805	0.999725
496.168839	1.000621
496.535815	1.000583
496.902733	1.000303
497.269593	0.999731
497.636395	0.999615
498.003139	0.999666
498.369825	1.000755
498.736453	1.000432
499.103023	1.000489
499.469535	1.000259
499.835989	1.000406
500.202385	1.000517
500.568723	1.000166
500.935003	1.000532
501.301226	1.000031
501.667390	1.000141
502.033497	1.000061
502.399546	1.000533
502.765537	1.001219
503.131470	1.000480
503.497345	1.000133
503.863163	1.000283
504.228923	0.999870
504.594625	1.000396
504.960269	1.000467
505.325856	1.001016
505.691385	1.000845
506.056856	1.000076
506.422270	1.000335
506.787625	1.000119
507.152924	1.001039
507.518164	1.000655
507.883347	0.999498
508.248472	1.000196
508.613540	0.999944
508.978550	1.000204
509.343503	1.000284
509.708398	1.000949
510.073236	1.000619
510.438016	0.999734
510.802738	1.000132
511.167403	1.000367
511.532010	1.000796
511.896561	1.000390
512.261053	1.000537
512.625488	1.000198
512.989866	0.999740
513.354186	1.000039
513.718449	1.000164
514.082655	1.000027
514.446803	0.999688
514.810894	1.000826
515.174927	1.000613
515.538904	1.000980
515.902822	1.000928
516.266684	1.000332
516.630488	1.000925
516.994235	1.000283
517.357925	1.000941
517.721558	1.000312
518.085133	0.999904
518.448651	1.000528
518.812112	1.000492
519.175516	1.000332
519.538863	0.999743
519.902152	1.000723
520.265385	1.000359
520.628560	1.000081
520.991678	1.000485
521.354739	1.001379
521.717743	1.000710
522.080690	1.000247
522.443580	1.000484
522.806413	1.000258
523.169189	1.000472
523.531908	0.999776
523.894569	1.000437
524.257174	1.000111
524.619722	1.000385
524.982213	1.000460
525.344647	1.000137
525.707025	1.000228
526.069345	1.000540
526.431608	1.001008
526.793815	1.000935
527.155964	1.000498
527.518057	1.000653
527.880093	0.999981
528.242072	1.000683
528.603995	1.000204
528.965860	1.001070
529.327669	1.000890
529.689421	1.000218
530.051117	1.000498
530.412755	0.999920
530.774337	1.000731
531.135862	1.001241
531.497331	1.000074
531.858743	1.001177
532.220098	1.000141
532.581396	1.000368
532.942638	1.001151
533.303824	1.000750
533.664953	1.000029
534.026025	1.000820
534.387040	1.000221
534.747999	1.000183
535.108902	1.000364
535.469748	1.001195
535.830537	1.000841
536.191270	1.000525
536.551947	1.000175
536.912567	1.000734
537.273131	1.001492
537.633638	1.000719
537.994089	1.000725
538.354483	1.000483
538.714821	1.000705
539.075103	1.001089
539.435328	1.001323
539.795497	1.000967
540.155609	1.001057
540.515665	1.000745
540.875665	0.999987
541.235609	1.000349
541.595496	1.000450
541.955328	1.000843
542.315102	1.000639
542.674821	1.001202
543.034483	1.000497
543.394090	0.999942
543.753640	1.000831
544.113134	1.000233
544.472571	1.001150
544.831953	1.000672
545.191278	1.000186
545.550548	1.000245
545.909761	0.999348
546.268918	1.001240
546.628019	1.001130
546.987064	1.000427
547.346053	1.000159
547.704986	1.000642
548.063863	1.000579
548.422684	1.000354
548.781449	1.000117
549.140158	1.000475
549.498811	1.000133
549.857408	0.999844
550.215949	0.999977
550.574434	1.000304
550.932864	1.000694
551.291237	1.000346
551.649555	1.001351
552.007817	1.000654
552.366022	1.001222
552.724173	1.000575
553.082267	1.000293
553.440305	1.000828
553.798288	1.000480
554.156215	1.000642
554.514086	1.000510
554.871902	1.000653
555.229661	1.000038
555.587365	1.000498
555.945014	1.001350
556.302606	1.000793
556.660143	1.000959
557.017625	1.000347
557.375050	1.000506
557.732421	1.000489
558.089735	1.000036
558.446994	1.000707
558.804197	1.000313
559.161345	0.999868
559.518437	1.000496
559.875474	1.001078
560.232455	1.000846
560.589381	1.000528
560.946251	0.999915
561.303065	1.001104
561.659825	1.000157
562.016528	1.000884
562.373177	1.000676
562.729770	1.000565
563.086307	0.999704
563.442789	1.001111
563.799216	1.000346
564.155587	1.000736
564.511904	1.001468
564.868164	1.000367
565.224370	1.000845
565.580520	1.000678
565.936615	1.001223
566.292654	1.000191
566.648638	1.001481
567.004567	1.000654
567.360441	1.000984
567.716260	1.000507
568.072023	1.000253
568.427732	1.000745
568.783385	1.001499
569.138982	1.000965
569.494525	1.000600
569.850013	1.001001
570.205445	1.000828
570.560823	1.000600
570.916145	1.000317
571.271412	1.001119
571.626625	1.000760
571.981782	1.000702
572.336884	1.001088
572.691931	1.000753
573.046923	1.000626
573.401860	1.000677
573.756743	1.000256
574.111570	0.999737
574.466342	1.001201
574.821059	1.000353
575.175722	1.000826
575.530330	1.000437
575.884882	1.000971
576.239380	1.000997
576.593823	1.000180
576.948211	1.000374
577.302544	1.000355
577.656823	1.001226
578.011047	1.000262
578.365216	1.000906
578.719330	1.000421
579.073389	0.999844
579.427394	1.001077
579.781344	1.000819
580.135239	1.000150
580.489080	1.001390
580.842866	1.000805
581.196597	1.000497
581.550273	1.000594
581.903895	1.000999
582.257463	1.000555
582.610975	1.000339
582.964434	1.000977
583.317837	1.001097
583.671186	1.000947
584.024481	1.001077
584.377721	1.000103
584.730906	1.001313
585.084037	1.001871
585.437113	1.000994
585.790135	1.000756
586.143103	1.000850
586.496016	1.001189
586.848874	1.000755
587.201679	1.001042
587.554428	1.000670
587.907124	1.001114
588.259765	1.000738
588.612352	1.001541
588.964884	1.000913
589.317362	1.000231
589.669786	1.000606
590.022155	1.000399
590.374470	1.001444
590.726731	0.999477
591.078937	1.001073
591.431090	1.000339
591.783188	1.000497
592.135232	1.001272
592.487222	1.000995
592.839157	1.000931
593.191038	1.000592
593.542866	1.000477
593.894639	1.000179
594.246358	1.000372
594.598022	1.000908
594.949633	1.000994
595.301190	1.000096
595.652692	1.000204
596.004141	1.001074
596.355535	1.000596
596.706876	1.001150
597.058162	1.000595
597.409395	1.000721
597.760573	1.001151
598.111698	1.001419
598.462768	1.000308
598.813785	1.000122
599.164748	1.000164
599.515657	1.000687
599.866511	1.001475
600.217312	1.001155
600.568060	1.000834
600.918753	1.001058
601.269392	1.000448
601.619978	1.000883
601.970510	1.000768
602.320988	1.000747
602.671412	0.999920
603.021783	1.001461
603.372100	1.001076
603.722363	1.000807
604.072572	1.000997
604.422728	1.000201
604.772830	1.000460
605.122878	1.000890
605.472872	1.001386
605.822813	1.000058
606.172701	1.000742
606.522534	1.001128
606.872314	1.001232
607.222041	1.000539
607.571714	1.000135
607.921333	1.000862
608.270899	1.000474
608.620411	1.001591
608.969870	1.001500
609.319276	1.000797
609.668627	1.001410
610.017926	1.000336
610.367171	1.000947
610.716362	1.001343
611.065500	1.001027
611.414585	1.000840
611.763616	1.000143
612.112594	1.001020
612.461518	0.999780
612.810389	1.000995
613.159207	1.000434
613.507971	0.999772
613.856682	1.002175
614.205340	0.999829
614.553945	1.000774
614.902496	1.000452
615.250994	1.001295
615.599439	1.000897
615.947830	1.000832
616.296169	1.000842
616.644454	1.000432
616.992686	1.000685
617.340864	1.001577
617.688990	1.000122
618.037063	1.000443
618.385082	1.000629
618.733048	1.000271
619.080961	1.000470
619.428821	1.000886
619.776628	0.999983
620.124382	1.000923
620.472083	1.000347
620.819731	1.001666
621.167326	1.001092
621.514868	1.000752
621.862357	1.000918
622.209793	1.001044
622.557176	1.000685
622.904506	1.000218
623.251783	1.001034
623.599007	1.001161
623.946179	1.000619
624.293297	1.000913
624.640363	1.001187
624.987376	1.000643
625.334336	1.000229
625.681243	1.000292
626.028097	1.001080
626.374899	1.000805
626.721647	1.001421
627.068343	1.000600
627.414987	1.000369
627.761577	1.000220
628.108115	1.000858
628.454600	1.001255
628.801032	1.000897
629.147412	1.000721
629.493739	1.001965
629.840014	1.000820
630.186236	1.000740
630.532405	0.999781
630.878521	0.999920
631.224585	1.000947
631.570597	1.000255
631.916556	1.000723
632.262462	0.999850
632.608316	1.000676
632.954117	1.000063
633.299866	1.000450
633.645562	1.000296
633.991206	1.000552
634.336797	0.999862
634.682336	1.001444
635.027823	1.000520
635.373257	1.001216
635.718639	1.001999
636.063968	0.999887
636.409245	1.000565
636.754470	1.000201
637.099642	1.001020
637.444762	1.001091
637.789829	1.000404
638.134845	1.000179
638.479808	1.000645
638.824719	1.000630
639.169577	1.000436
639.514383	1.000555
639.859137	1.000869
640.203839	1.000405
640.548489	0.999927
640.893086	1.000489
641.237632	1.000454
641.582125	1.000439
641.926566	1.001102
642.270955	1.000317
642.615292	0.999881
642.959576	1.000073
643.303809	1.001132
643.647990	1.000712
643.992118	1.000976
644.336195	0.999523
644.680219	1.000500
645.024192	1.000612
645.368112	0.999837
645.711981	1.000361
646.055797	1.000180
646.399562	0.999934
646.743274	1.001120
647.086935	1.000220
647.430544	1.000415
647.774101	1.000074
648.117606	1.001169
648.461059	1.000729
648.804460	1.000867
649.147810	1.000204
649.491108	0.999632
649.834354	1.000974
650.177548	1.000211
650.520690	1.000215
650.863781	0.999327
651.206820	1.000270
651.549807	1.000546
651.892742	1.001785
652.235626	1.001154
652.578458	1.000109
652.921238	1.000358
653.263967	1.000935
653.606644	1.000697
653.949269	1.001210
654.291843	0.999879
654.634365	1.000555
654.976836	0.999429
655.319255	1.001247
655.661622	1.001014
656.003938	1.000888
656.346203	0.999965
656.688416	1.001707
657.030577	1.000150
657.372687	0.999964
657.714746	0.999261
658.056753	0.999779
658.398708	0.999957
658.740612	1.000902
659.082465	1.000500
659.424266	1.000319
659.766016	0.999964
660.107715	1.000233
660.449362	1.000596
660.790958	0.999962
661.132503	1.000465
661.473996	1.000309
661.815438	1.000259
662.156829	0.999761
662.498168	1.000603
662.839456	0.999323
663.180693	0.999762
663.521879	1.000081
663.863013	1.001266
664.204097	1.000003
664.545129	1.000676
664.886110	1.000840
665.227040	0.999823
665.567918	1.000914
665.908746	1.000108
666.249522	0.999681
666.590248	0.999806
666.930922	1.000268
667.271545	1.000264
667.612118	1.000194
667.952639	1.000354
668.293109	1.000680
668.633528	0.999839
668.973896	1.000710
669.314213	1.000220
669.654480	1.000543
669.994695	0.999418
670.334859	1.000079
670.674973	1.000524
671.015035	1.000355
671.355047	1.000112
671.695008	1.000002
672.034918	0.999181
672.374777	1.000841
672.714585	1.000281
673.054342	1.000510
673.394049	0.999518
673.733705	0.999727
674.073310	1.000909
674.412864	0.999357
674.752368	0.999759
675.091820	1.000961
675.431223	1.000776
675.770574	0.999688
676.109875	1.000356
676.449125	0.999614
676.788324	1.000572
677.127473	1.000869
677.466571	1.000288
677.805619	0.999973
678.144616	1.000542
678.483562	1.000120
678.822458	0.999718
679.161303	0.999172
679.500098	1.000119
679.838842	0.999919
680.177535	1.000115
680.516179	1.000663
680.854771	0.999004
681.193314	1.000251
681.531805	0.999704
681.870247	1.000108
682.208638	1.000110
682.546978	0.999539
682.885268	0.999681
683.223508	0.999597
683.561697	0.999394
683.899836	1.000021
684.237925	0.999693
684.575963	1.000016
684.913951	0.999965
685.251889	0.999761
685.589776	1.000218
685.927614	0.998892
686.265401	0.999405
686.603137	0.999466
686.940824	1.000656
687.278460	1.000435
687.616046	0.999544
687.953582	1.000027
688.291068	0.999877
688.628504	0.999881
688.965889	0.999658
689.303224	0.999207
689.640510	0.999496
689.977745	0.999298
690.314930	0.999451
690.652065	0.999540
690.989150	0.999371
691.326185	0.999592
691.663170	0.999097
692.000105	0.999752
692.336990	0.999394
692.673825	0.999596
693.010610	0.999190
693.347345	0.999536
693.684030	0.998549
694.020665	0.999436
694.357251	0.999177
694.693786	0.999849
695.030272	0.998503
695.366707	0.999083
695.703093	0.999024
696.039429	0.998390
696.375716	0.998428
696.711952	0.999531
697.048139	1.000313
697.384276	0.999548
697.720363	0.999526
698.056400	0.998428
698.392388	0.998271
698.728326	0.999079
699.064214	1.000289
699.400053	0.998676
699.735842	0.999658
700.071581	0.999552
700.407270	0.999084
700.742910	1.000293
701.078501	0.999301
701.414042	0.999675
701.749533	0.998305
702.084974	0.999550
702.420366	0.999665
702.755709	0.999080
703.091002	0.999362
703.426246	0.999991
703.761440	0.998812
704.096584	0.998656
704.431679	0.998793
704.766725	0.999439
705.101721	1.000529
705.436668	0.999513
705.771565	0.998930
706.106413	0.998428
706.441212	0.999369
706.775961	0.998843
707.110661	0.998317
707.445311	0.999515
707.779913	0.999280
708.114465	1.000354
708.448967	1.000682
708.783421	0.999879
709.117825	0.999402
709.452180	1.000033
709.786485	1.000146
710.120742	0.999612
710.454949	0.998352
710.789107	1.000415
711.123216	0.999196
711.457275	0.998432
711.791286	0.999710
712.125247	1.000006
712.459159	0.999238
712.793023	0.998891
713.126837	0.999741
713.460602	0.998578
713.794318	0.998760
714.127985	0.998158
714.461602	0.999711
714.795171	0.998974
715.128691	0.999012
715.462162	0.999812
715.795584	0.998747
716.128957	0.999429
716.462281	1.000584
716.795556	0.998711
717.128782	0.999909
717.461960	0.998718
717.795088	0.999207
718.128167	1.000107
718.461198	1.000129
718.794180	0.999785
719.127113	0.999482
719.459997	0.998788
719.792833	0.999101
720.125619	0.998872
720.458357	0.998788
720.791046	0.998685
721.123686	0.999529
721.456278	0.999632
721.788821	0.999119
722.121315	1.000326
722.453761	0.999182
722.786158	0.997811
723.118506	0.999175
723.450805	0.998581
723.783056	0.998640
724.115259	0.999114
724.447412	0.999433
724.779518	0.999208
725.111574	0.998903
725.443582	0.999585
725.775542	0.999594
726.107453	1.000228
726.439315	0.999833
726.771129	1.000097
727.102895	0.999435
727.434612	0.998754
727.766281	0.999092
728.097901	0.999120
728.429473	1.000076
728.760996	0.997744
729.092471	0.999309
729.423897	0.999999
729.755276	0.999031
730.086606	0.999221
730.417887	1.000307
730.749120	0.999741
731.080305	0.999654
731.411442	0.998998
731.742530	0.998676
732.073570	0.999324
732.404562	0.999523
732.735506	0.998468
733.066401	0.998575
733.397249	0.998685
733.728048	0.999483
734.058798	0.998459
734.389501	0.999881
734.720156	0.998887
735.050762	0.999484
735.381320	0.999395
735.711831	0.998725
736.042293	0.999103
736.372707	0.999795
736.703073	0.999100
737.033391	0.998779
737.363661	1.000278
737.693883	0.999667
738.024056	0.999372
738.354182	0.999322
738.684260	0.999768
739.014290	0.999523
739.344272	0.999637
739.674207	0.999642
740.004093	0.999285
740.333931	1.000319
740.663722	0.998168
740.993464	0.998842
741.323159	0.998738
741.652806	0.998536
741.982405	0.998359
742.311956	0.999354
742.641460	0.998831
742.970915	0.998801
743.300323	0.998971
743.629683	0.998685
743.958996	0.999545
744.288260	0.998534
744.617477	0.999293
744.946647	0.998815
745.275768	1.000168
745.604842	0.998779
745.933869	0.999045
746.262847	0.999490
746.591778	0.998262
746.920662	0.999877
747.249498	1.000531
747.578286	0.999926
747.907027	0.999695
748.235720	0.999153
748.564365	0.999442
748.892963	0.998706
749.221514	0.999611
749.550017	0.998240
749.878473	0.999616
750.206881	0.999488
750.535242	0.998316
750.863555	0.998599
751.191821	0.998404
751.520039	0.999146
751.848210	0.997773
752.176334	0.999297
752.504411	0.999115
752.832440	0.998174
753.160421	0.998649
753.488356	0.999205
753.816243	0.999076
754.144082	0.999387
754.471875	0.999112
754.799620	1.000071
755.127318	0.999236
755.454969	0.998581
755.782572	1.000394
756.110129	0.998525
756.437638	1.001005
756.765100	0.999166
757.092515	0.999032
757.419882	0.999242
757.747203	0.999151
758.074477	1.000583
758.401703	0.999019
758.728882	1.000337
759.056014	0.999579
759.383099	0.998978
759.710138	0.998594
760.037129	1.000053
760.364073	0.999899
760.690970	0.998442
761.017820	0.999060
761.344623	0.999079
761.671379	0.999451
761.998088	0.999263
762.324751	0.999695
762.651366	0.999029
762.977935	0.998574
763.304456	0.999956
763.630931	0.998002
763.957359	0.999277
764.283740	0.997658
764.610074	0.998877
764.936362	0.998435
765.262602	0.999166
765.588796	0.999821
765.914943	0.999518
766.241044	0.998993
766.567097	0.998676
766.893104	0.999307
767.219064	0.998189
767.544978	0.999189
767.870845	0.999321
768.196665	0.998226
768.522438	0.999662
768.848165	1.000102
769.173846	0.999923
769.499479	1.000028
769.825066	1.000464
770.150607	1.000718
770.476101	0.999794
770.801548	0.999610
771.126949	1.000789
771.452303	0.998503
771.777611	0.999899
772.102872	0.999152
772.428087	0.999206
772.753256	0.999502
773.078378	0.998838
773.403453	0.998652
773.728482	1.000518
774.053465	0.999019
774.378401	1.000457
774.703291	0.999721
775.028135	1.000435
775.352932	0.997832
775.677683	0.999968
776.002388	0.998859
776.327046	0.998558
776.651658	1.001022
776.976224	0.999521
777.300743	0.999178
777.625216	0.998879
777.949643	0.998577
778.274024	0.999536
778.598359	1.000340
778.922647	0.999301
779.246889	1.000654
779.571086	0.999534
779.895236	0.999794
780.219339	1.000344
780.543397	0.998101
780.867409	1.000735
781.191374	0.999025
781.515294	1.000319
781.839167	1.000022
782.162995	1.000241
782.486776	0.999611
782.810511	0.999479
783.134201	1.000406
783.457844	1.000027
783.781441	0.999104
784.104993	0.999384
784.428498	1.000335
784.751958	1.000212
785.075372	0.999709
785.398739	0.998684
785.722061	0.998337
786.045337	1.000423
786.368568	0.999793
786.691752	0.999640
787.014891	0.999582
787.337983	0.999761
787.661030	0.999866
787.984031	0.999787
788.306987	1.000737
788.629897	0.998400
788.952760	0.999490
789.275579	0.999433
789.598351	0.998842
789.921078	1.000388
790.243759	0.998647
790.566395	0.998859
790.888984	1.000812
791.211529	0.998932
791.534027	0.998451
791.856480	1.000004
792.178888	0.998455
792.501249	0.999433
792.823566	1.000473
793.145836	0.999959
793.468062	0.999744
793.790241	0.999928
794.112375	0.999935
794.434464	0.999527
794.756507	1.000198
795.078505	0.999388
795.400457	1.000251
795.722364	0.999859
796.044226	0.999581
796.366042	0.999269
796.687812	0.998829
797.009538	0.998382
797.331218	1.000595
797.652852	0.999879
797.974442	0.999387
798.295986	0.999682
798.617484	0.998537
798.938938	0.998627
799.260346	0.998806
799.581709	0.999422
799.903026	1.000495
800.224299	0.998823
800.545526	0.999223
800.866708	0.999274
801.187845	1.000360
801.508936	0.999066
801.829983	1.000165
802.150984	0.999670
802.471940	0.999558
802.792851	0.999298
803.113717	1.000267
803.434538	1.000132
803.755314	1.000335
804.076045	0.999340
804.396731	0.999158
804.717372	0.998336
805.037967	1.000125
805.358518	1.000126
805.679024	1.000619
805.999485	0.999675
806.319901	0.999339
806.640272	1.000613
806.960598	0.999467
807.280879	1.000080
807.601115	1.000211
807.921306	0.999987
808.241453	0.998982
808.561554	0.999350
808.881611	0.999365
809.201623	1.000433
809.521590	1.000655
809.841513	1.000352
810.161390	0.999143
810.481223	0.999159
810.801011	0.999649
811.120755	1.000060
811.440453	0.998760
811.760107	1.000255
812.079716	0.999634
812.399281	0.999073
812.718801	1.000339
813.038276	0.999914
813.357707	1.000348
813.677093	1.000367
813.996434	0.999242
814.315731	1.000968
814.634983	0.999564
814.954191	1.000348
815.273354	0.999639
815.592473	0.998651
815.911547	0.999425
816.230577	0.999389
816.549562	0.999858
816.868502	0.997904
817.187399	1.001003
817.506250	1.000966
817.825058	0.997915
818.143821	0.998953
818.462539	1.000232
818.781213	0.999722
819.099843	0.999545
819.418429	0.999197
819.736970	1.000104
820.055466	0.999262
820.373919	1.000613
820.692327	0.998602
821.010691	0.999378
821.329011	0.998601
821.647286	0.998747
821.965517	0.998934
822.283704	0.998317
822.601847	0.998106
822.919945	0.998168
823.237999	0.997956
823.556010	0.997919
823.873976	0.998713
824.191897	0.998840
824.509775	0.999482
824.827609	0.998821
825.145398	0.999260
825.463144	0.997129
825.780845	0.998026
826.098502	0.998569
826.416116	0.998895
826.733685	1.000073
827.051210	0.997918
827.368692	0.998511
827.686129	0.998149
828.003522	0.999110
828.320872	0.999309
828.638177	0.999826
828.955439	1.000189
829.272656	0.999998
829.589830	0.999516
829.906960	0.999871
830.224046	0.998423
830.541088	0.998858
830.858086	0.998814
831.175041	1.000854
831.491952	0.998899
831.808819	1.000076
832.125642	0.999321
832.442421	1.000425
832.759157	0.999726
833.075849	0.998858
833.392497	0.999326
833.709101	0.999305
834.025662	0.999217
834.342179	0.999156
834.658653	0.999617
834.975083	1.000242
835.291469	1.000031
835.607811	0.999007
835.924110	0.998740
836.240366	1.000367
836.556578	0.999804
836.872746	0.999437
837.188871	0.999386
837.504952	0.999712
837.820990	0.999921
838.136984	0.999036
838.452935	0.999709
838.768842	1.000291
839.084706	0.999499
839.400526	1.000335
839.716303	0.998716
840.032037	1.000608
840.347727	0.999522
840.663373	0.999630
840.978977	0.999516
841.294537	0.999943
841.610054	1.000358
841.925527	1.000101
842.240957	0.999506
842.556344	0.998833
842.871687	0.999899
843.186987	0.999880
843.502244	0.999381
843.817458	0.998170
844.132629	0.998794
844.447756	1.000046
844.762840	1.000741
845.077881	1.001657
845.392879	0.998520
845.707833	0.999800
846.022745	0.999894
846.337613	0.999695
846.652438	0.999291
846.967221	1.000712
847.281960	1.000890
847.596656	0.999947
847.911309	1.000266
848.225919	0.999679
848.540485	0.999730
848.855009	1.000781
849.169490	0.999053
849.483928	0.999289
849.798323	0.998607
850.112675	1.000191
850.426984	0.999749
850.741251	1.000187
851.055474	0.999554
851.369654	1.000338
851.683792	0.998677
851.997887	1.000150
852.311938	1.000762
852.625947	0.999988
852.939914	0.998888
853.253837	1.000357
853.567718	0.999826
853.881555	1.000660
854.195350	1.000311
854.509103	1.000089
854.822812	1.000715
855.136479	0.999536
855.450103	1.000254
855.763685	1.000142
856.077224	0.999930
856.390720	1.000100
856.704173	1.000097
857.017584	1.000147
857.330953	1.000181
857.644278	1.000209
857.957561	1.000262
858.270802	1.000924
858.584000	0.999857
858.897155	0.999208
859.210268	0.999926
859.523339	1.001207
859.836367	0.999816
860.149352	1.000203
860.462295	0.999977
860.775195	0.999989
861.088054	0.998486
861.400869	0.999428
861.713642	0.999025
862.026373	1.000630
862.339062	1.000828
862.651708	1.001042
862.964312	0.999965
863.276873	0.999392
863.589392	0.999652
863.901869	0.999771
864.214303	1.000265
864.526696	0.999829
864.839045	0.999788
865.151353	0.999412
865.463619	0.999259
865.775842	1.000500
866.088023	1.000906
866.400162	1.000015
866.712258	1.000543
867.024313	1.000667
867.336325	1.000501
867.648296	1.000535
867.960224	1.000238
868.272110	1.001237
868.583954	1.000689
868.895755	1.000739
869.207515	0.998813
869.519233	1.000560
869.830909	1.000285
870.142542	0.999505
870.454134	1.000195
870.765684	0.999866
871.077191	1.000106
871.388657	0.999621
871.700081	1.000396
872.011463	1.000869
872.322803	1.000009
872.634101	0.999071
872.945357	0.999233
873.256571	0.999248
873.567744	1.000261
873.878874	1.000162
874.189963	1.000068
874.501010	1.001674
874.812015	0.999804
875.122979	1.000495
875.433900	1.000557
875.744780	1.001182
876.055618	0.999366
876.366415	0.999833
876.677169	0.999980
876.987882	0.999685
877.298554	1.001267
877.609183	0.999828
877.919771	1.000608
878.230317	0.999325
878.540822	0.999499
878.851285	0.999458
879.161707	1.000358
879.472087	1.001732
879.782425	0.999225
880.092722	1.000255
880.402977	0.999005
880.713191	0.998939
881.023363	0.998505
881.333494	0.999114
881.643583	1.000379
881.953631	0.998676
882.263637	0.998668
882.573602	1.000099
882.883526	0.999094
883.193408	0.999921
883.503248	0.999245
883.813048	0.998859
884.122806	0.998714
884.432522	0.998997
884.742197	1.000621
885.051831	0.999390
885.361424	0.999339
885.670975	1.000521
885.980485	1.000447
886.289954	0.999076
886.599382	0.998484
886.908768	1.000943
887.218113	0.999651
887.527417	0.999937
887.836680	0.999889
888.145901	1.000002
888.455082	1.000543
888.764221	1.000519
889.073319	0.999317
889.382376	1.000574
889.691392	0.999238
890.000366	1.000913
890.309300	1.000160
890.618193	1.000585
890.927044	0.999679
891.235855	0.999747
891.544625	1.000146
891.853353	1.000381
892.162041	1.000209
892.470687	1.001127
892.779293	0.999241
893.087858	0.998775
893.396381	0.999397
893.704864	0.999404
894.013306	1.000033
894.321707	0.999598
894.630068	1.000891
894.938387	1.000052
895.246665	0.999030
895.554903	0.999257
895.863100	0.999823
896.171256	0.999230
896.479371	0.999779
896.787446	0.999492
897.095480	0.998934
897.403473	0.999864
897.711425	1.000781
898.019336	1.000447
898.327207	1.000448
898.635038	0.999203
898.942827	1.000656
899.250576	0.999758
899.558284	0.999626
899.865952	0.999405
900.173579	0.999609
900.481165	0.999605
900.788711	0.999263
901.096216	0.999808
901.403681	0.999745
901.711105	0.999372
902.018489	0.998802
902.325832	0.999239
902.633135	0.999489
902.940397	1.000757
903.247619	1.000412
903.554800	0.998828
903.861941	1.000907
904.169041	1.000355
904.476101	0.999563
904.783121	0.999862
905.090100	0.998539
905.397039	0.999645
905.703938	1.000176
906.010796	0.998566
906.317614	0.999199
906.624391	0.999723
906.931129	1.000271
907.237826	0.999348
907.544483	0.999725
907.851099	0.999652
908.157675	0.998527
908.464211	0.999647
908.770707	0.998781
909.077163	0.999476
909.383578	0.999874
909.689954	0.998980
909.996289	1.000619
910.302584	1.000478
910.608839	1.000553
910.915054	0.999877
911.221229	1.000805
911.527363	0.999711
911.833458	0.999882
912.139513	0.999515
912.445527	1.000049
912.751502	1.000903
913.057436	1.000014
913.363331	0.999783
913.669186	1.000836
913.975000	1.001143
914.280775	1.000143
914.586510	0.999489
914.892205	0.999364
915.197859	0.998534
915.503475	1.000228
915.809050	0.999347
916.114585	0.998833
916.420081	0.999893
916.725536	1.000242
917.030952	0.999618
917.336328	1.000102
917.641665	0.999117
917.946961	0.998708
918.252218	0.999714
918.557435	0.998333
918.862612	0.999639
919.167750	1.000031
919.472848	1.000723
919.777906	1.002460
920.082925	1.000672
920.387904	1.000560
920.692843	1.000182
920.997743	0.999281
921.302603	1.000043
921.607423	0.999696
921.912204	1.000354
922.216946	1.000199
922.521647	1.000851
922.826310	0.999572
923.130932	1.001290
923.435516	1.001386
923.740059	0.999370
924.044564	0.998946
924.349028	0.999052
924.653454	1.000660
924.957840	0.999233
925.262186	0.999838
925.566493	0.999332
925.870761	0.999447
926.174989	0.999505
926.479178	1.000230
926.783328	1.000106
927.087438	1.001294
927.391509	0.999167
927.695541	0.999916
927.999533	0.999768
928.303486	0.999794
928.607400	1.000463
928.911275	1.000698
929.215110	1.000430
929.518906	1.000374
929.822663	1.000859
930.126381	1.000485
930.430060	1.000327
930.733699	1.000298
931.037299	1.000556
931.340861	1.001577
931.644383	0.999594
931.947866	1.000551
932.251309	1.000953
932.554714	1.000197
932.858080	1.000501
933.161407	0.999495
933.464694	1.000755
933.767943	1.000471
934.071153	0.999735
934.374323	1.001228
934.677455	0.999241
934.980548	0.999487
935.283602	0.999796
935.586617	1.000301
935.889593	1.001426
936.192530	1.001044
936.495428	0.999570
936.798287	0.999307
937.101108	1.000017
937.403890	1.000156
937.706632	1.001303
938.009336	1.001025
938.312002	0.999969
938.614628	0.999650
938.917216	0.999993
939.219765	0.999887
939.522275	0.999901
939.824747	1.000489
940.127179	0.999156
940.429573	1.001504
940.731929	0.999103
941.034246	1.000868
941.336524	0.999653
941.638763	0.999601
941.940964	0.999248
942.243126	0.999705
942.545250	1.000853
942.847335	1.000960
943.149381	1.000261
943.451389	0.998416
943.753359	0.999541
944.055290	1.001412
944.357182	1.000071
944.659036	1.000795
944.960851	1.000670
945.262628	1.000578
945.564367	1.000142
945.866067	0.999458
946.167729	1.001459
946.469352	0.999788
946.770937	0.998047
947.072484	1.001768
947.373992	1.000050
947.675462	0.999163
947.976893	0.999684
948.278286	1.001909
948.579641	1.000101
948.880958	1.001350
949.182236	1.000651
949.483476	1.000593
949.784678	1.000939
950.085841	0.999916
950.386967	0.999359
950.688054	1.000978
950.989103	0.998163
951.290114	0.999377
951.591087	1.000680
951.892021	0.999177
952.192917	1.000817
952.493776	1.000140
952.794596	1.000175
953.095378	0.999686
953.396122	0.999956
953.696828	0.999809
953.997496	0.999618
954.298126	1.000823
954.598718	1.000283
954.899272	0.999271
955.199788	0.999407
955.500266	1.000566
955.800706	1.000103
956.101108	0.999483
956.401472	1.002099
956.701798	0.999204
957.002087	0.999582
957.302337	0.999824
957.602550	0.999591
957.902724	0.999286
958.202861	0.999555
958.502960	0.999659
958.803022	1.001728
959.103045	1.000004
959.403031	1.000822
959.702979	1.000589
960.002889	0.999416
960.302762	0.999455
960.602596	1.000678
960.902393	1.000503
961.202153	0.999546
961.501875	1.000382
961.801559	1.000154
962.101205	1.001092
962.400814	1.000814
962.700385	1.000818
962.999918	1.001150
963.299414	0.999074
963.598873	1.000546
963.898293	0.999691
964.197677	0.999512
964.497022	1.000217
964.796331	1.001012
965.095601	1.001922
965.394835	0.999861
965.694030	1.000359
965.993189	0.999829
966.292309	1.000655
966.591393	0.998074
966.890439	1.000485
967.189447	0.999847
967.488419	1.000151
967.787353	0.999228
968.086249	0.999827
968.385108	1.000959
968.683930	0.999862
968.982714	0.999833
969.281462	0.999905
969.580172	0.998995
969.878844	1.001450
970.177480	1.001072
970.476078	1.001729
970.774639	1.000388
971.073162	0.999835
971.371649	0.999519
971.670098	0.998846
971.968510	0.999690
972.266885	0.999280
972.565223	1.000200
972.863524	0.999136
973.161788	0.999220
973.460014	1.001415
973.758204	0.999384
974.056356	1.000321
974.354471	0.998711
974.652550	1.000990
974.950591	0.999037
975.248595	1.000079
975.546563	0.999986
975.844493	1.000561
976.142386	1.000400
976.440243	1.000817
976.738062	1.000563
977.035845	0.998984
977.333590	1.001142
977.631299	0.999036
977.928971	1.000488
978.226606	1.000686
978.524204	0.999785
978.821765	0.999553
979.119290	0.999827
979.416777	0.999963
979.714228	0.998887
980.011642	0.999701
980.309020	0.999252
980.606360	1.000299
980.903664	1.000730
981.200931	0.998792
981.498162	1.000350
981.795356	1.000295
982.092513	1.000153
982.389633	1.000713
982.686717	0.998247
982.983764	1.000857
983.280775	0.999604
983.577749	1.001297
983.874686	0.999336
984.171587	0.999747
984.468451	0.999915
984.765279	1.000693
985.062070	1.000400
985.358824	0.998954
985.655543	1.000367
985.952224	1.000281
986.248869	1.001047
986.545478	1.000461
986.842050	0.999983
987.138586	1.000176
987.435086	0.999164
987.731549	1.000544
988.027975	1.001274
988.324366	1.000302
988.620719	1.000274
988.917037	1.000258
989.213318	1.000748
989.509563	1.000314
989.805772	0.999929
990.101944	1.001287
990.398080	1.001082
990.694180	1.001172
990.990244	0.999501
991.286271	1.000215
991.582262	1.001464
991.878217	0.999890
992.174136	1.000831
992.470019	0.999630
992.765865	1.001934
993.061676	1.001150
993.357450	1.000275
993.653188	1.001114
993.948890	1.000039
994.244556	0.999276
994.540186	1.000695
994.835780	1.000296
995.131337	1.001055
995.426859	1.000679
995.722345	1.000905
996.017795	1.000283
996.313208	1.000036
996.608586	1.000303
996.903928	1.000148
997.199234	0.999762
997.494504	1.000741
997.789738	0.999024
998.084936	0.999803
998.380099	0.998984
998.675225	1.000936
998.970316	1.001318
999.265371	1.000607
999.560390	0.999803
999.855373	1.000237
1000.150320	0.999536
1000.445232	1.001515
1000.740108	0.999345
1001.034948	0.999419
1001.329752	0.999274
1001.624521	0.999936
1001.919254	0.998969
1002.213951	0.999039
1002.508613	0.999019
1002.803239	0.999232
1003.097829	1.000504
1003.392384	1.000327
1003.686903	1.000068
1003.981386	1.000340
1004.275834	1.001601
1004.570246	0.998151
1004.864623	1.000628
1005.158964	1.000167
1005.453270	0.999674
1005.747540	0.999024
1006.041775	1.000904
1006.335974	1.000039
1006.630138	1.000753
1006.924266	0.998040
1007.218359	0.998443
1007.512416	1.000361
1007.806438	0.999945
1008.100425	1.000345
1008.394376	1.000293
1008.688292	0.999420
1008.982172	0.998767
1009.276017	1.000451
1009.569827	1.001610
1009.863602	0.999627
1010.157341	1.001147
1010.451045	0.999886
1010.744714	1.001590
1011.038347	1.001538
1011.331945	0.999524
1011.625508	0.999725
1011.919036	1.000445
1012.212528	1.001067
1012.505986	0.999794
1012.799408	1.000911
1013.092795	0.999485
1013.386147	1.000507
1013.679464	1.000356
1013.972745	1.000436
1014.265992	0.999636
1014.559204	0.999321
1014.852380	1.000403
1015.145521	1.000374
1015.438628	1.000467
1015.731699	0.999625
1016.024736	1.000315
1016.317737	0.999695
1016.610703	1.000137
1016.903635	1.000694
1017.196531	1.000518
1017.489393	1.000352
1017.782219	0.999480
1018.075011	0.999892
1018.367768	0.999810
1018.660490	1.000435
1018.953177	1.000435
1019.245829	1.000435
