Dividing Wavelength (nm)	Counts (n)	Blue Motor Position (mm): 46.200000	Red Motor Position (mm): 0.000000	
326.493990	1.000331
326.888308	1.000331
327.282561	1.000331
327.676750	1.000810
328.070874	1.001806
328.464933	1.002023
328.858929	1.000658
329.252859	0.999370
329.646726	0.999374
330.040528	1.000104
330.434265	1.000237
330.827938	1.000119
331.221547	1.000441
331.615091	1.000831
332.008571	1.001603
332.401986	0.999029
332.795338	0.999966
333.188625	1.000638
333.581847	1.000695
333.975006	1.000643
334.368100	1.001222
334.761129	0.999706
335.154095	1.000518
335.546996	1.000679
335.939833	0.998916
336.332606	1.000112
336.725315	0.999901
337.117960	1.002464
337.510540	0.999999
337.903056	1.000167
338.295508	1.001680
338.687896	1.000968
339.080220	1.000262
339.472480	1.000547
339.864676	1.001081
340.256807	1.000181
340.648875	1.000685
341.040879	1.000188
341.432818	0.999785
341.824694	1.000446
342.216506	1.000565
342.608253	1.000462
342.999937	1.000521
343.391557	1.001492
343.783113	1.000695
344.174605	1.001841
344.566033	0.999964
344.957397	1.000610
345.348697	1.000558
345.739934	1.000843
346.131106	1.001149
346.522215	0.999270
346.913260	1.000669
347.304241	0.998450
347.695159	1.000596
348.086012	1.000118
348.476802	1.000410
348.867528	1.000001
349.258191	1.001064
349.648789	0.999886
350.039324	1.000407
350.429796	0.999074
350.820203	0.999534
351.210548	1.000338
351.600828	0.999771
351.991045	0.999648
352.381198	1.001280
352.771288	1.000146
353.161314	1.000622
353.551276	0.998892
353.941175	0.999289
354.331010	1.002163
354.720782	1.000319
355.110490	1.000050
355.500135	1.001144
355.889717	1.000672
356.279235	0.999647
356.668689	1.001501
357.058080	0.999986
357.447408	0.999340
357.836672	0.998985
358.225873	1.000800
358.615010	0.999032
359.004084	0.999657
359.393095	1.000909
359.782043	1.000456
360.170927	1.001044
360.559748	1.000827
360.948505	0.999764
361.337199	0.999642
361.725830	1.000482
362.114398	0.999836
362.502903	1.000447
362.891344	0.999630
363.279722	0.999752
363.668037	1.000191
364.056289	0.999536
364.444478	1.001128
364.832603	1.000670
365.220665	1.000974
365.608665	0.999048
365.996601	0.998842
366.384474	0.998909
366.772284	1.000807
367.160031	0.998226
367.547715	0.999618
367.935336	0.998289
368.322893	0.997447
368.710388	0.995389
369.097820	0.994570
369.485189	0.991127
369.872495	0.991368
370.259738	0.988985
370.646918	0.985394
371.034035	0.984171
371.421090	0.980622
371.808081	0.976925
372.195010	0.974801
372.581875	0.969924
372.968678	0.966727
373.355418	0.964358
373.742096	0.958581
374.128710	0.955359
374.515262	0.953720
374.901751	0.950339
375.288177	0.946816
375.674540	0.944182
376.060841	0.941443
376.447079	0.937763
376.833254	0.936342
377.219367	0.935418
377.605417	0.929534
377.991404	0.930398
378.377329	0.927881
378.763191	0.928823
379.148991	0.926192
379.534727	0.924606
379.920402	0.922222
380.306013	0.923495
380.691563	0.922618
381.077049	0.922248
381.462474	0.924446
381.847835	0.922856
382.233134	0.925795
382.618371	0.929664
383.003545	0.928337
383.388657	0.929721
383.773706	0.932845
384.158693	0.934932
384.543618	0.939174
384.928480	0.940511
385.313280	0.942749
385.698017	0.945414
386.082692	0.947194
386.467305	0.950879
386.851856	0.955897
387.236344	0.957530
387.620770	0.961096
388.005133	0.963237
388.389435	0.966092
388.773674	0.968808
389.157851	0.972413
389.541965	0.974766
389.926018	0.977240
390.310008	0.978991
390.693936	0.981529
391.077802	0.984353
391.461606	0.985613
391.845348	0.986689
392.229027	0.987883
392.612645	0.988731
392.996200	0.991280
393.379694	0.992032
393.763125	0.993490
394.146494	0.994740
394.529801	0.995066
394.913047	0.995199
395.296230	0.997045
395.679351	0.996600
396.062410	0.997754
396.445408	0.998639
396.828343	0.998618
397.211217	0.998540
397.594028	0.998069
397.976778	0.999627
398.359466	0.999886
398.742092	1.000266
399.124656	0.998819
399.507158	0.999749
399.889598	1.000830
400.271977	1.000628
400.654294	0.999734
401.036549	1.001251
401.418742	1.000907
401.800874	1.000528
402.182944	0.999311
402.564952	1.000111
402.946898	1.000479
403.328783	1.000611
403.710606	1.000290
404.092367	1.000105
404.474067	1.000708
404.855705	1.001280
405.237282	1.000022
405.618797	1.000382
406.000250	1.000351
406.381642	1.000688
406.762972	1.001184
407.144240	1.001626
407.525447	0.999482
407.906593	1.000735
408.287677	1.000884
408.668700	1.000187
409.049661	1.000719
409.430560	1.000232
409.811399	1.000525
410.192176	1.000462
410.572891	1.001119
410.953545	1.000577
411.334138	1.000540
411.714669	0.999567
412.095139	1.001337
412.475547	1.000584
412.855894	1.000815
413.236180	1.000902
413.616405	1.000556
413.996568	1.000711
414.376670	1.000548
414.756711	0.999745
415.136691	1.001286
415.516609	1.000126
415.896466	1.001203
416.276262	1.000097
416.655997	1.000708
417.035670	1.001493
417.415283	1.000923
417.794834	1.000681
418.174324	1.001497
418.553753	1.001209
418.933121	1.000871
419.312428	1.001830
419.691674	1.001723
420.070859	1.001748
420.449983	1.001303
420.829045	1.000378
421.208047	1.001440
421.586988	1.000314
421.965867	1.000290
422.344686	1.000516
422.723444	1.000197
423.102141	1.000730
423.480777	1.000410
423.859352	1.000276
424.237866	1.001511
424.616319	1.000650
424.994712	1.000559
425.373044	1.000680
425.751314	1.001058
426.129524	1.001533
426.507673	1.000447
426.885762	1.000555
427.263789	1.000696
427.641756	1.000758
428.019662	1.000626
428.397508	1.000905
428.775292	1.000678
429.153016	1.000362
429.530679	1.001273
429.908282	1.001215
430.285824	1.000769
430.663305	1.001266
431.040726	1.001253
431.418086	1.000499
431.795385	1.001296
432.172624	1.001983
432.549802	1.001319
432.926920	1.000950
433.303977	1.000635
433.680974	1.001450
434.057910	1.000946
434.434786	1.001850
434.811601	1.001110
435.188355	1.001730
435.565050	1.002103
435.941683	1.000912
436.318257	1.000331
436.694770	1.000873
437.071222	1.001062
437.447614	1.000950
437.823946	1.000657
438.200218	1.001133
438.576429	1.000599
438.952580	1.000737
439.328670	1.001052
439.704700	1.000990
440.080670	1.001673
440.456580	1.001723
440.832429	1.001116
441.208218	1.001423
441.583947	1.000325
441.959616	1.000649
442.335224	1.001860
442.710773	1.001794
443.086261	1.001102
443.461689	1.000030
443.837057	1.000880
444.212365	1.001463
444.587612	1.001457
444.962800	1.001831
445.337927	1.001675
445.712995	1.000766
446.088002	1.001137
446.462949	1.001178
446.837837	1.003371
447.212664	1.000475
447.587431	1.002138
447.962139	1.001414
448.336786	1.000030
448.711374	1.001510
449.085901	1.001112
449.460369	1.002095
449.834776	1.001265
450.209124	1.001420
450.583412	1.001165
450.957640	1.000921
451.331808	1.001970
451.705917	1.000852
452.079965	1.001510
452.453954	1.001816
452.827883	1.001547
453.201752	1.001768
453.575562	1.000564
453.949311	1.002130
454.323001	1.001368
454.696632	1.001660
455.070202	1.001424
455.443713	1.001006
455.817164	1.001077
456.190556	1.001556
456.563888	1.002314
456.937160	1.001357
457.310373	1.000641
457.683526	1.000832
458.056619	1.001571
458.429653	1.000517
458.802628	1.001136
459.175542	1.001090
459.548398	1.000967
459.921194	1.001886
460.293930	1.002438
460.666607	1.002269
461.039224	1.001002
461.411782	1.001112
461.784280	1.000908
462.156719	1.002366
462.529099	1.001741
462.901419	1.001870
463.273680	1.000819
463.645882	1.001200
464.018024	1.001938
464.390106	1.001653
464.762130	1.001818
465.134094	1.001329
465.505999	1.001633
465.877845	1.000907
466.249631	1.001234
466.621358	1.000752
466.993026	1.001376
467.364634	1.001256
467.736184	1.001426
468.107674	1.002507
468.479105	1.001233
468.850477	1.001895
469.221790	1.001840
469.593043	1.001820
469.964238	1.001823
470.335373	1.002139
470.706449	1.002170
471.077467	1.001633
471.448425	1.001587
471.819324	1.001343
472.190164	1.001403
472.560945	1.002105
472.931667	1.001543
473.302330	1.001758
473.672934	1.001771
474.043479	1.001859
474.413965	1.001847
474.784393	1.001550
475.154761	1.001035
475.525070	1.002098
475.895321	1.001664
476.265513	1.001892
476.635645	1.001929
477.005719	1.001548
477.375734	1.001147
477.745691	1.001821
478.115588	1.001553
478.485427	1.001407
478.855207	1.001492
479.224928	1.001475
479.594591	1.001869
479.964194	1.001019
480.333739	1.001637
480.703226	1.001258
481.072653	1.001692
481.442022	1.002111
481.811333	1.001344
482.180584	1.002039
482.549777	1.001153
482.918912	1.001300
483.287988	1.001657
483.657005	1.000864
484.025964	1.001405
484.394864	1.001229
484.763706	1.001319
485.132489	1.001131
485.501213	1.001545
485.869879	1.001432
486.238487	1.000824
486.607036	1.001549
486.975527	1.001246
487.343959	1.000644
487.712333	1.001094
488.080648	1.000938
488.448905	1.001754
488.817104	1.000890
489.185244	1.000755
489.553326	1.001067
489.921350	1.001495
490.289315	1.001205
490.657222	1.000447
491.025070	1.001656
491.392861	1.001597
491.760593	1.001111
492.128267	1.001080
492.495883	1.000588
492.863440	1.001355
493.230939	1.001252
493.598380	1.001764
493.965763	1.001171
494.333088	1.000277
494.700354	1.000772
495.067563	1.000732
495.434713	1.001303
495.801805	1.001109
496.168839	1.001557
496.535815	1.001246
496.902733	1.001042
497.269593	1.000946
497.636395	1.000169
498.003139	1.001088
498.369825	1.001664
498.736453	1.001070
499.103023	1.001086
499.469535	1.001520
499.835989	1.001189
500.202385	1.000857
500.568723	1.001205
500.935003	1.001754
501.301226	1.001294
501.667390	1.000890
502.033497	1.001068
502.399546	1.001426
502.765537	1.000856
503.131470	1.000954
503.497345	1.001162
503.863163	1.001050
504.228923	1.000682
504.594625	1.001684
504.960269	1.001477
505.325856	1.001740
505.691385	1.001821
506.056856	1.001495
506.422270	1.000784
506.787625	1.001305
507.152924	1.001835
507.518164	1.001074
507.883347	1.001112
508.248472	1.001431
508.613540	1.000484
508.978550	1.001468
509.343503	1.001382
509.708398	1.001650
510.073236	1.001879
510.438016	1.001133
510.802738	1.000966
511.167403	1.000922
511.532010	1.001357
511.896561	1.001912
512.261053	1.001102
512.625488	1.001271
512.989866	1.000866
513.354186	1.000733
513.718449	1.001133
514.082655	1.001277
514.446803	1.001280
514.810894	1.001541
515.174927	1.001438
515.538904	1.001858
515.902822	1.000991
516.266684	1.000887
516.630488	1.001333
516.994235	1.001523
517.357925	1.001284
517.721558	1.001503
518.085133	1.001029
518.448651	1.001514
518.812112	1.001269
519.175516	1.001332
519.538863	1.000435
519.902152	1.002191
520.265385	1.001224
520.628560	1.000851
520.991678	1.000803
521.354739	1.002015
521.717743	1.001290
522.080690	1.001057
522.443580	1.001223
522.806413	1.001011
523.169189	1.002104
523.531908	1.000913
523.894569	1.001652
524.257174	1.001068
524.619722	1.001331
524.982213	1.001499
525.344647	1.001281
525.707025	1.000460
526.069345	1.000794
526.431608	1.001456
526.793815	1.001489
527.155964	1.001897
527.518057	1.001687
527.880093	1.001211
528.242072	1.001039
528.603995	1.000855
528.965860	1.001496
529.327669	1.001644
529.689421	1.001105
530.051117	1.000919
530.412755	1.002260
530.774337	1.001194
531.135862	1.001432
531.497331	1.001323
531.858743	1.001503
532.220098	1.000117
532.581396	1.001309
532.942638	1.001744
533.303824	1.001845
533.664953	1.001192
534.026025	1.002305
534.387040	1.001366
534.747999	1.000797
535.108902	1.001307
535.469748	1.001952
535.830537	1.002055
536.191270	1.001455
536.551947	1.001271
536.912567	1.001849
537.273131	1.002169
537.633638	1.001552
537.994089	1.001730
538.354483	1.000702
538.714821	1.001149
539.075103	1.001126
539.435328	1.001442
539.795497	1.001401
540.155609	1.001288
540.515665	1.001929
540.875665	1.001565
541.235609	1.001208
541.595496	1.000674
541.955328	1.000891
542.315102	1.001683
542.674821	1.001284
543.034483	1.001910
543.394090	1.000368
543.753640	1.001845
544.113134	1.001513
544.472571	1.001632
544.831953	1.001139
545.191278	1.001816
545.550548	1.000800
545.909761	1.001099
546.268918	1.001872
546.628019	1.001903
546.987064	1.001187
547.346053	1.001106
547.704986	1.001178
548.063863	1.001138
548.422684	1.001702
548.781449	1.001306
549.140158	1.001400
549.498811	1.000741
549.857408	1.000593
550.215949	1.001082
550.574434	1.001187
550.932864	1.001490
551.291237	1.001693
551.649555	1.001773
552.007817	1.001614
552.366022	1.002532
552.724173	1.002326
553.082267	1.001300
553.440305	1.001075
553.798288	1.000273
554.156215	1.001214
554.514086	1.001812
554.871902	1.001385
555.229661	1.000740
555.587365	1.001555
555.945014	1.001947
556.302606	1.001146
556.660143	1.002289
557.017625	1.002073
557.375050	1.001273
557.732421	1.001618
558.089735	1.001091
558.446994	1.001213
558.804197	1.001598
559.161345	1.000903
559.518437	1.000585
559.875474	1.001764
560.232455	1.001522
560.589381	1.001618
560.946251	1.001053
561.303065	1.001885
561.659825	1.001057
562.016528	1.002038
562.373177	1.001668
562.729770	1.001326
563.086307	1.000937
563.442789	1.001875
563.799216	1.000576
564.155587	1.001253
564.511904	1.001878
564.868164	1.000617
565.224370	1.000755
565.580520	1.001629
565.936615	1.001875
566.292654	1.001575
566.648638	1.001799
567.004567	1.001400
567.360441	1.001446
567.716260	1.001162
568.072023	1.001327
568.427732	1.001453
568.783385	1.001470
569.138982	1.001720
569.494525	1.000799
569.850013	1.001980
570.205445	1.001959
570.560823	1.001689
570.916145	1.000890
571.271412	1.001658
571.626625	1.001250
571.981782	1.001406
572.336884	1.001684
572.691931	1.000846
573.046923	1.001028
573.401860	1.001665
573.756743	1.001177
574.111570	1.001391
574.466342	1.002713
574.821059	1.001361
575.175722	1.001442
575.530330	1.001589
575.884882	1.001332
576.239380	1.001773
576.593823	1.001637
576.948211	1.001903
577.302544	1.001328
577.656823	1.001908
578.011047	1.000472
578.365216	1.001899
578.719330	1.000933
579.073389	1.000677
579.427394	1.000927
579.781344	1.001548
580.135239	1.000822
580.489080	1.001476
580.842866	1.001365
581.196597	1.001440
581.550273	1.000362
581.903895	1.001736
582.257463	1.001220
582.610975	1.001256
582.964434	1.001651
583.317837	1.001811
583.671186	1.002216
584.024481	1.000801
584.377721	1.000923
584.730906	1.001265
585.084037	1.001605
585.437113	1.002345
585.790135	1.001632
586.143103	1.001537
586.496016	1.001228
586.848874	1.001249
587.201679	1.002238
587.554428	1.001573
587.907124	1.001325
588.259765	1.001368
588.612352	1.002032
588.964884	1.001988
589.317362	1.001717
589.669786	1.001249
590.022155	1.001210
590.374470	1.000454
590.726731	1.000634
591.078937	1.001291
591.431090	1.001740
591.783188	1.001442
592.135232	1.001264
592.487222	1.001060
592.839157	1.001412
593.191038	1.001589
593.542866	1.001622
593.894639	1.000800
594.246358	1.001778
594.598022	1.001437
594.949633	1.001723
595.301190	1.001517
595.652692	1.001026
596.004141	1.001117
596.355535	1.001310
596.706876	1.001700
597.058162	1.001547
597.409395	1.001945
597.760573	1.001730
598.111698	1.001084
598.462768	1.000650
598.813785	1.001004
599.164748	1.000762
599.515657	1.001371
599.866511	1.001511
600.217312	1.001975
600.568060	1.001762
600.918753	1.001984
601.269392	1.002297
601.619978	1.001644
601.970510	1.001248
602.320988	1.001366
602.671412	1.000692
603.021783	1.001458
603.372100	1.001614
603.722363	1.002118
604.072572	1.000908
604.422728	1.000583
604.772830	1.001191
605.122878	1.001531
605.472872	1.002381
605.822813	1.000800
606.172701	1.001236
606.522534	1.000955
606.872314	1.002435
607.222041	1.001666
607.571714	1.001679
607.921333	1.001067
608.270899	1.001029
608.620411	1.001666
608.969870	1.002269
609.319276	1.001219
609.668627	1.001972
610.017926	1.001099
610.367171	1.001010
610.716362	1.001156
611.065500	1.000956
611.414585	1.001270
611.763616	1.000061
612.112594	1.000624
612.461518	1.000424
612.810389	1.001555
613.159207	1.001372
613.507971	1.000336
613.856682	1.002687
614.205340	1.001288
614.553945	1.000891
614.902496	1.001740
615.250994	1.002433
615.599439	1.001055
615.947830	1.000986
616.296169	1.001332
616.644454	1.001579
616.992686	1.001220
617.340864	1.001478
617.688990	1.001215
618.037063	1.001931
618.385082	1.000311
618.733048	1.001168
619.080961	1.000611
619.428821	1.001511
619.776628	1.001422
620.124382	1.002552
620.472083	1.001946
620.819731	1.002584
621.167326	1.001229
621.514868	1.002251
621.862357	1.001783
622.209793	1.001931
622.557176	1.001302
622.904506	1.001856
623.251783	1.001381
623.599007	1.001811
623.946179	1.000754
624.293297	1.000963
624.640363	1.001743
624.987376	1.000064
625.334336	1.000870
625.681243	1.000896
626.028097	1.001421
626.374899	1.001580
626.721647	1.001713
627.068343	1.000906
627.414987	1.001545
627.761577	1.000947
628.108115	1.000783
628.454600	1.001157
628.801032	1.001260
629.147412	1.002076
629.493739	1.001681
629.840014	1.001113
630.186236	1.000852
630.532405	1.001190
630.878521	1.000838
631.224585	1.000824
631.570597	1.001213
631.916556	1.001563
632.262462	1.000943
632.608316	1.001052
632.954117	1.000736
633.299866	1.000972
633.645562	1.000991
633.991206	1.001209
634.336797	1.000513
634.682336	1.001651
635.027823	1.001091
635.373257	1.002042
635.718639	1.001310
636.063968	1.001131
636.409245	1.000095
636.754470	1.001357
637.099642	1.001780
637.444762	1.001343
637.789829	1.001508
638.134845	1.000960
638.479808	1.001006
638.824719	1.000861
639.169577	1.000875
639.514383	1.001777
639.859137	1.001872
640.203839	1.000858
640.548489	1.001069
640.893086	1.000806
641.237632	1.001452
641.582125	1.001070
641.926566	1.001278
642.270955	1.000766
642.615292	1.000693
642.959576	1.001078
643.303809	1.001197
643.647990	1.001211
643.992118	1.000964
644.336195	1.000526
644.680219	1.000895
645.024192	1.001505
645.368112	1.000606
645.711981	1.000044
646.055797	1.001131
646.399562	1.000691
646.743274	1.001574
647.086935	1.000410
647.430544	1.001174
647.774101	0.999714
648.117606	1.001412
648.461059	1.001662
648.804460	1.000751
649.147810	1.000822
649.491108	1.000424
649.834354	1.000928
650.177548	1.000613
650.520690	1.001119
650.863781	1.000018
651.206820	1.000841
651.549807	1.000927
651.892742	1.001208
652.235626	1.000996
652.578458	1.001402
652.921238	1.001887
653.263967	1.001622
653.606644	1.001206
653.949269	1.001207
654.291843	1.000587
654.634365	1.001502
654.976836	1.000254
655.319255	1.001626
655.661622	1.000946
656.003938	1.000502
656.346203	1.000854
656.688416	1.001806
657.030577	1.000997
657.372687	1.001453
657.714746	1.000676
658.056753	1.000477
658.398708	1.000165
658.740612	1.001550
659.082465	1.000086
659.424266	1.000596
659.766016	1.000401
660.107715	1.001603
660.449362	1.000682
660.790958	1.000281
661.132503	1.000506
661.473996	1.000004
661.815438	1.001091
662.156829	1.001005
662.498168	1.001202
662.839456	1.000085
663.180693	1.000424
663.521879	1.000564
663.863013	1.001159
664.204097	1.000820
664.545129	1.001056
664.886110	1.001100
665.227040	1.000238
665.567918	1.000754
665.908746	1.000328
666.249522	1.000250
666.590248	1.000209
666.930922	1.000030
667.271545	1.000238
667.612118	1.000486
667.952639	1.000391
668.293109	0.999821
668.633528	1.001090
668.973896	1.000610
669.314213	1.000167
669.654480	1.000861
669.994695	0.999447
670.334859	1.000230
670.674973	1.000039
671.015035	1.000021
671.355047	1.000431
671.695008	1.000089
672.034918	1.000429
672.374777	1.000513
672.714585	1.000755
673.054342	1.001024
673.394049	0.999881
673.733705	1.000034
674.073310	1.001078
674.412864	1.000189
674.752368	0.999797
675.091820	1.001256
675.431223	1.000460
675.770574	0.999986
676.109875	0.999961
676.449125	1.000008
676.788324	0.999863
677.127473	1.000772
677.466571	1.001076
677.805619	1.001221
678.144616	1.000364
678.483562	1.000811
678.822458	1.000222
679.161303	0.999678
679.500098	1.000178
679.838842	1.000799
680.177535	0.999540
680.516179	0.999420
680.854771	0.999500
681.193314	1.000078
681.531805	1.000180
681.870247	1.000346
682.208638	1.000251
682.546978	0.999170
682.885268	1.000184
683.223508	1.000563
683.561697	0.999513
683.899836	0.999881
684.237925	0.999983
684.575963	0.999795
684.913951	0.999576
685.251889	1.000308
685.589776	0.999860
685.927614	0.999259
686.265401	0.999815
686.603137	0.999208
686.940824	0.999698
687.278460	1.000345
687.616046	0.999571
687.953582	0.999567
688.291068	1.000630
688.628504	1.000006
688.965889	0.998660
689.303224	0.998531
689.640510	0.999187
689.977745	0.999107
690.314930	0.999556
690.652065	1.000128
690.989150	0.999210
691.326185	0.999763
691.663170	0.999420
692.000105	1.000466
692.336990	1.000124
692.673825	1.000011
693.010610	0.999744
693.347345	0.999703
693.684030	0.999313
694.020665	0.999243
694.357251	0.998988
694.693786	1.000371
695.030272	0.998751
695.366707	0.999127
695.703093	0.999571
696.039429	0.998714
696.375716	0.999425
696.711952	0.999719
697.048139	1.000154
697.384276	0.999035
697.720363	0.998733
698.056400	0.998813
698.392388	0.998180
698.728326	0.998806
699.064214	1.001126
699.400053	0.999240
699.735842	1.000736
700.071581	0.999467
700.407270	0.998760
700.742910	0.999975
701.078501	0.999098
701.414042	1.000735
701.749533	0.998211
702.084974	0.999754
702.420366	1.000428
702.755709	0.998849
703.091002	0.999992
703.426246	1.000509
703.761440	0.999683
704.096584	0.999710
704.431679	0.999130
704.766725	0.999181
705.101721	0.999732
705.436668	0.998766
705.771565	0.998778
706.106413	0.997794
706.441212	0.999457
706.775961	0.999881
707.110661	0.998472
707.445311	0.999827
707.779913	1.000095
708.114465	1.000620
708.448967	0.999731
708.783421	0.999961
709.117825	0.999737
709.452180	0.998900
709.786485	0.999693
710.120742	0.999304
710.454949	0.998772
710.789107	0.999077
711.123216	0.998613
711.457275	0.998271
711.791286	0.999104
712.125247	1.000020
712.459159	0.999174
712.793023	0.999019
713.126837	0.999230
713.460602	0.998838
713.794318	0.998172
714.127985	0.998580
714.461602	0.999123
714.795171	0.998209
715.128691	0.998847
715.462162	0.999243
715.795584	0.998797
716.128957	0.999902
716.462281	0.999140
716.795556	0.999253
717.128782	1.000214
717.461960	0.998121
717.795088	0.999497
718.128167	1.000223
718.461198	0.999170
718.794180	0.999026
719.127113	0.999370
719.459997	0.998331
719.792833	0.999073
720.125619	0.998751
720.458357	0.999085
720.791046	0.999641
721.123686	0.999992
721.456278	0.999138
721.788821	0.999086
722.121315	0.999787
722.453761	0.999252
722.786158	0.998519
723.118506	0.999287
723.450805	0.998336
723.783056	0.999994
724.115259	0.998815
724.447412	1.000259
724.779518	0.998447
725.111574	0.998266
725.443582	0.997839
725.775542	0.999299
726.107453	0.999619
726.439315	0.999017
726.771129	0.999918
727.102895	0.998776
727.434612	0.998762
727.766281	0.999107
728.097901	0.997977
728.429473	0.999734
728.760996	0.999570
729.092471	0.999283
729.423897	0.999080
729.755276	0.998512
730.086606	0.998659
730.417887	0.999825
730.749120	0.999807
731.080305	0.998554
731.411442	0.998248
731.742530	0.998242
732.073570	0.997876
732.404562	0.998531
732.735506	0.998423
733.066401	0.998704
733.397249	0.997957
733.728048	0.998018
734.058798	0.998907
734.389501	0.999991
734.720156	0.999507
735.050762	1.000021
735.381320	0.998653
735.711831	0.997732
736.042293	0.998182
736.372707	0.999632
736.703073	0.998099
737.033391	0.998600
737.363661	0.999097
737.693883	0.998831
738.024056	0.997330
738.354182	0.998583
738.684260	0.997992
739.014290	0.999322
739.344272	0.998479
739.674207	0.998744
740.004093	0.998773
740.333931	0.998971
740.663722	0.997954
740.993464	0.998889
741.323159	0.998237
741.652806	0.999108
741.982405	0.998058
742.311956	0.999578
742.641460	0.999067
742.970915	0.999415
743.300323	0.998422
743.629683	0.998978
743.958996	0.999672
744.288260	0.998209
744.617477	0.998447
744.946647	0.998358
745.275768	0.999786
745.604842	0.998455
745.933869	0.999049
746.262847	0.998985
746.591778	0.997536
746.920662	0.999983
747.249498	1.000259
747.578286	1.000080
747.907027	0.999204
748.235720	0.998834
748.564365	0.999709
748.892963	0.998606
749.221514	0.999086
749.550017	0.998299
749.878473	0.999632
750.206881	0.999582
750.535242	0.999303
750.863555	0.998470
751.191821	0.998257
751.520039	0.998532
751.848210	0.997810
752.176334	0.998121
752.504411	0.999111
752.832440	0.998313
753.160421	0.999134
753.488356	0.999119
753.816243	0.998089
754.144082	0.998498
754.471875	0.999878
754.799620	0.998751
755.127318	0.999869
755.454969	0.998256
755.782572	1.001060
756.110129	0.998465
756.437638	1.000261
756.765100	0.999298
757.092515	0.998480
757.419882	0.999644
757.747203	0.999213
758.074477	0.999200
758.401703	0.998439
758.728882	0.998861
759.056014	0.998595
759.383099	0.998496
759.710138	0.999122
760.037129	0.999511
760.364073	0.999560
760.690970	0.999073
761.017820	0.997881
761.344623	0.998726
761.671379	0.999509
761.998088	0.999399
762.324751	0.999154
762.651366	0.998597
762.977935	0.997143
763.304456	0.998072
763.630931	0.996899
763.957359	0.996955
764.283740	0.996975
764.610074	0.997474
764.936362	0.997874
765.262602	0.998439
765.588796	0.999202
765.914943	0.998271
766.241044	0.998299
766.567097	0.998570
766.893104	0.999072
767.219064	0.997558
767.544978	0.999285
767.870845	0.999342
768.196665	0.998374
768.522438	0.999397
768.848165	0.999507
769.173846	1.000066
769.499479	0.999244
769.825066	0.999616
770.150607	0.999964
770.476101	0.999161
770.801548	0.999926
771.126949	0.999570
771.452303	0.999798
771.777611	0.999095
772.102872	0.998928
772.428087	0.998269
772.753256	0.999390
773.078378	0.999359
773.403453	0.999353
773.728482	0.999829
774.053465	0.999290
774.378401	0.998844
774.703291	1.000215
775.028135	0.999932
775.352932	0.997535
775.677683	0.999769
776.002388	0.999322
776.327046	0.999443
776.651658	1.000762
776.976224	0.999699
777.300743	0.998940
777.625216	0.999053
777.949643	0.999838
778.274024	0.998852
778.598359	0.998731
778.922647	0.999317
779.246889	1.000415
779.571086	0.999584
779.895236	0.998656
780.219339	0.999907
780.543397	0.998869
780.867409	0.998855
781.191374	0.999286
781.515294	0.999050
781.839167	0.999322
782.162995	0.999419
782.486776	0.998579
782.810511	0.998691
783.134201	1.000275
783.457844	0.999697
783.781441	0.998787
784.104993	0.998155
784.428498	0.999754
784.751958	1.000624
785.075372	1.000860
785.398739	0.999464
785.722061	0.997852
786.045337	1.000045
786.368568	1.000123
786.691752	0.999315
787.014891	0.999114
787.337983	0.998684
787.661030	0.998517
787.984031	0.999074
788.306987	0.999008
788.629897	0.996847
788.952760	0.999077
789.275579	1.000458
789.598351	0.998792
789.921078	1.000347
790.243759	0.999226
790.566395	0.998859
790.888984	0.999731
791.211529	1.000047
791.534027	1.000483
791.856480	0.999912
792.178888	0.999553
792.501249	0.999159
792.823566	1.000231
793.145836	0.998741
793.468062	1.000270
793.790241	0.999961
794.112375	0.998358
794.434464	0.999214
794.756507	1.000228
795.078505	0.999222
795.400457	0.999480
795.722364	1.000698
796.044226	1.000147
796.366042	0.998884
796.687812	0.998169
797.009538	0.998782
797.331218	0.999951
797.652852	1.000040
797.974442	0.999120
798.295986	0.999967
798.617484	0.998832
798.938938	1.000307
799.260346	0.999380
799.581709	0.999300
799.903026	1.000084
800.224299	0.999006
800.545526	0.999690
800.866708	0.998708
801.187845	0.999803
801.508936	1.000410
801.829983	0.998878
802.150984	0.999806
802.471940	1.000267
802.792851	0.999062
803.113717	1.000305
803.434538	0.998707
803.755314	1.000257
804.076045	0.999233
804.396731	0.998306
804.717372	0.998298
805.037967	1.000294
805.358518	0.999522
805.679024	0.998810
805.999485	1.000538
806.319901	0.998461
806.640272	0.999267
806.960598	0.999639
807.280879	0.999544
807.601115	1.000160
807.921306	1.000175
808.241453	0.999381
808.561554	0.999296
808.881611	0.999752
809.201623	0.999944
809.521590	0.999104
809.841513	0.999488
810.161390	1.000205
810.481223	0.999417
810.801011	1.000200
811.120755	1.000993
811.440453	0.998960
811.760107	1.000367
812.079716	0.999448
812.399281	0.999644
812.718801	0.999322
813.038276	0.999996
813.357707	1.000333
813.677093	1.000273
813.996434	0.999563
814.315731	1.000846
814.634983	0.999946
814.954191	1.000134
815.273354	1.000388
815.592473	0.998792
815.911547	0.998992
816.230577	0.998954
816.549562	1.000123
816.868502	0.997929
817.187399	1.000426
817.506250	1.000242
817.825058	0.998832
818.143821	0.999465
818.462539	1.000228
818.781213	0.999909
819.099843	0.998857
819.418429	0.998171
819.736970	0.998694
820.055466	0.997310
820.373919	0.998194
820.692327	0.997080
821.010691	0.997905
821.329011	0.996192
821.647286	0.994574
821.965517	0.995347
822.283704	0.994254
822.601847	0.994437
822.919945	0.994346
823.237999	0.994592
823.556010	0.995283
823.873976	0.996002
824.191897	0.997175
824.509775	0.997321
824.827609	0.997008
825.145398	0.997650
825.463144	0.997245
825.780845	0.996465
826.098502	0.996842
826.416116	0.997517
826.733685	0.996527
827.051210	0.996181
827.368692	0.995295
827.686129	0.996530
828.003522	0.998221
828.320872	0.997640
828.638177	0.997685
828.955439	0.999318
829.272656	0.999069
829.589830	0.998615
829.906960	0.999101
830.224046	0.998668
830.541088	0.999598
830.858086	0.998546
831.175041	0.999826
831.491952	0.998150
831.808819	0.998159
832.125642	1.000329
832.442421	1.000128
832.759157	0.999638
833.075849	0.998685
833.392497	0.998612
833.709101	0.996487
834.025662	0.996820
834.342179	0.998263
834.658653	0.997828
834.975083	0.998032
835.291469	0.998798
835.607811	0.998071
835.924110	0.998527
836.240366	1.000491
836.556578	0.999661
836.872746	0.999813
837.188871	1.000056
837.504952	1.000110
837.820990	0.999937
838.136984	0.999280
838.452935	1.000080
838.768842	1.000416
839.084706	0.999341
839.400526	0.999637
839.716303	0.997750
840.032037	0.999294
840.347727	0.998427
840.663373	0.999374
840.978977	0.999273
841.294537	1.000306
841.610054	0.999881
841.925527	1.000202
842.240957	0.999943
842.556344	0.998957
842.871687	0.999388
843.186987	0.998907
843.502244	0.999684
843.817458	0.999097
844.132629	0.999725
844.447756	0.999627
844.762840	1.000226
845.077881	1.000610
845.392879	0.999839
845.707833	1.000043
846.022745	0.999947
846.337613	1.000943
846.652438	0.999590
846.967221	0.999710
847.281960	1.000627
847.596656	0.999328
847.911309	1.000094
848.225919	0.999164
848.540485	0.999128
848.855009	1.001358
849.169490	1.000682
849.483928	1.000081
849.798323	0.998276
850.112675	1.000693
850.426984	0.999893
850.741251	1.000274
851.055474	0.999543
851.369654	0.999745
851.683792	0.999570
851.997887	1.000360
852.311938	1.001000
852.625947	0.999490
852.939914	0.999874
853.253837	1.000914
853.567718	1.001191
853.881555	1.000925
854.195350	1.000777
854.509103	1.000177
854.822812	1.000459
855.136479	0.999976
855.450103	0.999680
855.763685	1.000429
856.077224	1.000058
856.390720	1.000289
856.704173	1.000849
857.017584	1.001214
857.330953	1.000738
857.644278	1.000609
857.957561	0.998884
858.270802	1.000260
858.584000	1.000617
858.897155	0.999628
859.210268	1.000416
859.523339	1.000993
859.836367	1.000340
860.149352	0.999560
860.462295	1.000095
860.775195	0.999318
861.088054	0.998910
861.400869	0.999166
861.713642	0.999622
862.026373	1.000974
862.339062	1.000228
862.651708	1.000097
862.964312	1.000930
863.276873	1.000672
863.589392	0.999997
863.901869	1.000478
864.214303	1.000580
864.526696	0.999817
864.839045	1.000282
865.151353	1.000585
865.463619	0.999352
865.775842	0.999436
866.088023	1.000472
866.400162	0.999880
866.712258	1.001418
867.024313	1.001694
867.336325	1.000066
867.648296	1.000077
867.960224	1.001170
868.272110	1.001528
868.583954	1.000335
868.895755	1.000513
869.207515	1.000689
869.519233	1.000749
869.830909	0.999089
870.142542	0.998448
870.454134	0.999855
870.765684	1.000304
871.077191	0.999932
871.388657	0.999409
871.700081	1.000997
872.011463	1.000636
872.322803	1.000390
872.634101	0.999178
872.945357	0.999353
873.256571	0.998992
873.567744	1.000747
873.878874	1.000082
874.189963	0.999212
874.501010	1.001693
874.812015	1.000103
875.122979	1.000130
875.433900	0.999963
875.744780	1.000557
876.055618	0.999538
876.366415	0.999652
876.677169	0.999469
876.987882	0.998743
877.298554	1.001019
877.609183	0.999330
877.919771	0.999782
878.230317	1.000372
878.540822	0.998773
878.851285	0.999376
879.161707	0.998931
879.472087	1.000612
879.782425	0.999145
880.092722	0.998993
880.402977	0.997144
880.713191	0.996176
881.023363	0.996665
881.333494	0.996739
881.643583	0.996998
881.953631	0.996281
882.263637	0.996541
882.573602	0.996954
882.883526	0.996754
883.193408	0.998222
883.503248	0.998208
883.813048	0.996974
884.122806	0.998462
884.432522	0.997686
884.742197	0.999280
885.051831	0.999026
885.361424	0.999091
885.670975	0.999909
885.980485	0.999098
886.289954	0.999026
886.599382	0.998565
886.908768	1.001155
887.218113	0.999082
887.527417	1.000353
887.836680	1.000748
888.145901	1.000195
888.455082	1.000698
888.764221	1.000984
889.073319	0.999545
889.382376	0.999817
889.691392	0.998699
890.000366	0.999845
890.309300	1.000432
890.618193	1.000168
890.927044	1.000148
891.235855	0.999764
891.544625	1.000226
891.853353	0.999524
892.162041	1.000309
892.470687	1.000707
892.779293	0.998818
893.087858	0.998916
893.396381	0.999239
893.704864	0.999875
894.013306	0.999444
894.321707	0.999229
894.630068	0.998548
894.938387	0.997673
895.246665	0.998062
895.554903	0.998440
895.863100	0.999132
896.171256	0.999481
896.479371	0.999078
896.787446	0.998945
897.095480	0.999101
897.403473	1.000041
897.711425	0.999871
898.019336	1.000370
898.327207	0.999927
898.635038	0.999167
898.942827	1.001398
899.250576	0.999067
899.558284	1.000604
899.865952	0.999020
900.173579	0.999759
900.481165	0.999870
900.788711	0.999518
901.096216	0.999705
901.403681	1.000785
901.711105	0.999855
902.018489	0.999933
902.325832	1.000577
902.633135	0.999991
902.940397	1.000253
903.247619	1.000243
903.554800	0.999192
903.861941	0.999367
904.169041	0.999049
904.476101	0.999393
904.783121	0.998180
905.090100	0.998901
905.397039	0.998114
905.703938	0.999475
906.010796	0.999338
906.317614	0.998120
906.624391	1.000019
906.931129	1.000690
907.237826	1.000255
907.544483	0.999838
907.851099	0.999438
908.157675	1.000176
908.464211	1.000384
908.770707	0.999707
909.077163	1.000089
909.383578	1.000417
909.689954	1.000736
909.996289	0.998887
910.302584	1.000750
910.608839	1.001793
910.915054	1.000619
911.221229	1.001253
911.527363	0.999705
911.833458	1.000247
912.139513	1.001485
912.445527	1.000343
912.751502	1.000473
913.057436	1.000365
913.363331	1.001221
913.669186	1.000242
913.975000	1.000517
914.280775	1.000743
914.586510	0.999758
914.892205	0.998787
915.197859	0.999002
915.503475	0.999387
915.809050	0.999159
916.114585	0.997717
916.420081	0.999784
916.725536	0.999142
917.030952	0.999121
917.336328	0.998343
917.641665	0.998239
917.946961	0.997934
918.252218	0.999307
918.557435	0.998323
918.862612	0.998931
919.167750	0.999896
919.472848	1.000171
919.777906	1.001117
920.082925	1.000895
920.387904	0.998910
920.692843	1.000054
920.997743	1.000000
921.302603	1.000859
921.607423	1.000013
921.912204	1.000866
922.216946	1.000948
922.521647	1.000437
922.826310	1.000373
923.130932	1.000293
923.435516	1.001059
923.740059	0.999457
924.044564	0.999965
924.349028	0.999493
924.653454	1.001539
924.957840	1.000457
925.262186	0.999714
925.566493	1.000416
925.870761	0.998884
926.174989	0.999951
926.479178	1.001008
926.783328	1.001400
927.087438	1.000447
927.391509	0.999949
927.695541	1.001003
927.999533	1.000705
928.303486	1.000395
928.607400	1.000763
928.911275	1.000321
929.215110	1.000620
929.518906	1.000453
929.822663	1.000936
930.126381	1.001662
930.430060	1.000130
930.733699	1.000974
931.037299	1.000561
931.340861	1.000538
931.644383	0.999380
931.947866	1.000919
932.251309	1.001013
932.554714	1.000769
932.858080	1.000524
933.161407	1.001570
933.464694	1.000639
933.767943	0.999891
934.071153	1.000828
934.374323	1.000445
934.677455	1.000145
934.980548	0.999614
935.283602	1.001484
935.586617	0.999995
935.889593	1.000697
936.192530	1.000396
936.495428	1.000016
936.798287	0.999811
937.101108	0.999971
937.403890	1.000596
937.706632	1.002412
938.009336	0.999996
938.312002	0.999805
938.614628	1.000538
938.917216	1.000629
939.219765	0.999406
939.522275	1.000569
939.824747	1.000644
940.127179	1.000378
940.429573	1.001110
940.731929	1.000171
941.034246	1.000280
941.336524	0.999379
941.638763	1.000251
941.940964	0.998029
942.243126	0.999472
942.545250	1.001033
942.847335	1.000844
943.149381	1.001651
943.451389	1.000296
943.753359	1.000640
944.055290	1.001494
944.357182	1.001172
944.659036	0.999962
944.960851	1.001086
945.262628	1.000708
945.564367	1.000858
945.866067	1.000508
946.167729	1.000541
946.469352	0.999429
946.770937	0.998664
947.072484	1.001553
947.373992	1.000603
947.675462	0.999956
947.976893	1.000062
948.278286	1.000842
948.579641	1.001366
948.880958	1.001383
949.182236	0.999882
949.483476	1.000891
949.784678	1.000923
950.085841	1.000303
950.386967	1.000448
950.688054	1.000438
950.989103	0.998920
951.290114	1.000135
951.591087	1.000324
951.892021	0.999971
952.192917	1.001314
952.493776	0.999897
952.794596	0.999708
953.095378	1.000266
953.396122	0.999724
953.696828	1.000533
953.997496	1.000787
954.298126	1.001288
954.598718	0.999920
954.899272	1.000831
955.199788	0.999775
955.500266	1.001301
955.800706	0.999901
956.101108	1.000621
956.401472	1.001287
956.701798	1.000092
957.002087	1.000256
957.302337	0.999876
957.602550	1.000298
957.902724	1.000189
958.202861	1.000417
958.502960	0.999450
958.803022	1.001598
959.103045	1.000308
959.403031	1.000121
959.702979	1.001315
960.002889	0.999615
960.302762	0.999683
960.602596	1.000992
960.902393	1.000357
961.202153	1.000040
961.501875	1.001781
961.801559	1.000170
962.101205	0.999880
962.400814	1.000912
962.700385	1.001674
962.999918	1.000423
963.299414	0.999100
963.598873	1.001577
963.898293	1.001439
964.197677	1.001038
964.497022	1.001269
964.796331	1.000785
965.095601	1.001422
965.394835	1.000693
965.694030	1.001932
965.993189	0.999928
966.292309	1.000405
966.591393	0.999353
966.890439	1.001937
967.189447	1.001173
967.488419	1.000590
967.787353	1.001144
968.086249	1.000330
968.385108	1.000321
968.683930	1.001562
968.982714	1.000698
969.281462	1.000946
969.580172	1.000136
969.878844	1.000946
970.177480	1.000753
970.476078	1.001475
970.774639	1.001245
971.073162	0.998572
971.371649	1.000522
971.670098	1.000730
971.968510	1.001118
972.266885	0.999884
972.565223	0.999568
972.863524	0.999850
973.161788	0.999515
973.460014	1.000387
973.758204	1.000193
974.056356	1.000804
974.354471	0.998634
974.652550	1.000844
974.950591	1.000059
975.248595	0.999449
975.546563	1.000605
975.844493	1.000699
976.142386	1.000048
976.440243	1.000920
976.738062	1.001375
977.035845	0.999106
977.333590	1.000608
977.631299	0.999660
977.928971	0.999684
978.226606	1.001334
978.524204	1.000519
978.821765	1.000519
979.119290	1.001780
979.416777	1.000954
979.714228	1.000791
980.011642	1.001412
980.309020	0.999908
980.606360	1.000088
980.903664	1.000919
981.200931	1.000053
981.498162	1.000918
981.795356	1.000731
982.092513	0.999473
982.389633	1.002083
982.686717	0.999875
982.983764	1.000527
983.280775	1.001484
983.577749	1.000710
983.874686	1.000186
984.171587	0.999383
984.468451	0.999879
984.765279	1.000606
985.062070	1.000687
985.358824	1.000256
985.655543	1.000665
985.952224	1.000585
986.248869	1.000979
986.545478	1.002478
986.842050	0.999830
987.138586	1.000952
987.435086	0.999442
987.731549	1.001520
988.027975	1.001073
988.324366	0.999135
988.620719	1.001640
988.917037	1.000562
989.213318	1.001129
989.509563	0.999905
989.805772	1.000839
990.101944	1.000881
990.398080	1.000132
990.694180	1.001437
990.990244	0.999626
991.286271	1.001328
991.582262	1.000568
991.878217	1.000692
992.174136	1.001339
992.470019	0.999765
992.765865	1.001303
993.061676	1.000785
993.357450	1.000420
993.653188	1.001332
993.948890	1.000372
994.244556	0.999981
994.540186	1.000713
994.835780	0.999655
995.131337	1.001498
995.426859	1.000216
995.722345	1.000762
996.017795	1.000622
996.313208	1.000630
996.608586	1.000587
996.903928	1.002164
997.199234	1.000169
997.494504	1.000379
997.789738	1.000149
998.084936	1.000861
998.380099	1.000302
998.675225	1.000844
998.970316	1.000369
999.265371	1.000386
999.560390	1.000288
999.855373	1.000640
1000.150320	1.000700
1000.445232	1.000429
1000.740108	1.000282
1001.034948	1.000356
1001.329752	1.002308
1001.624521	1.000488
1001.919254	1.000512
1002.213951	1.001342
1002.508613	0.999573
1002.803239	1.000210
1003.097829	1.000616
1003.392384	1.000840
1003.686903	1.000357
1003.981386	0.999174
1004.275834	1.001509
1004.570246	0.999644
1004.864623	1.001081
1005.158964	1.001408
1005.453270	1.000019
1005.747540	1.000561
1006.041775	1.000062
1006.335974	0.999989
1006.630138	0.999589
1006.924266	0.998608
1007.218359	0.998479
1007.512416	1.001063
1007.806438	1.000566
1008.100425	1.000389
1008.394376	1.001419
1008.688292	1.001210
1008.982172	1.001650
1009.276017	1.001043
1009.569827	1.001316
1009.863602	0.999834
1010.157341	1.000031
1010.451045	0.999288
1010.744714	1.002053
1011.038347	1.000929
1011.331945	0.999087
1011.625508	0.999797
1011.919036	1.000453
1012.212528	1.001187
1012.505986	1.001028
1012.799408	1.000562
1013.092795	1.001486
1013.386147	1.000447
1013.679464	1.002722
1013.972745	0.999978
1014.265992	0.999977
1014.559204	0.999277
1014.852380	1.001165
1015.145521	0.999508
1015.438628	1.001217
1015.731699	0.999613
1016.024736	1.001156
1016.317737	1.000785
1016.610703	1.000315
1016.903635	1.000432
1017.196531	1.001044
1017.489393	0.999499
1017.782219	0.999477
1018.075011	1.000343
1018.367768	0.998932
1018.660490	1.000488
1018.953177	1.000488
1019.245829	1.000488
