Dividing Wavelength (nm)	Counts (n)	Blue Motor Position (mm): 47.300000	Red Motor Position (mm): 0.000000	
326.493990	0.999283
326.888308	0.999283
327.282561	0.999283
327.676750	1.001812
328.070874	1.001533
328.464933	1.000778
328.858929	1.000389
329.252859	1.000282
329.646726	1.000184
330.040528	1.000016
330.434265	1.001273
330.827938	1.000335
331.221547	1.000617
331.615091	1.001270
332.008571	1.001102
332.401986	0.999373
332.795338	0.998609
333.188625	1.000737
333.581847	0.999637
333.975006	0.999589
334.368100	1.000005
334.761129	1.000419
335.154095	1.000371
335.546996	1.000895
335.939833	1.000512
336.332606	1.000433
336.725315	0.999440
337.117960	1.000797
337.510540	1.000457
337.903056	1.000115
338.295508	1.001198
338.687896	1.001138
339.080220	0.999996
339.472480	0.999769
339.864676	1.000896
340.256807	0.999219
340.648875	0.999991
341.040879	0.999152
341.432818	1.001132
341.824694	0.999204
342.216506	1.000269
342.608253	1.000499
342.999937	0.999426
343.391557	1.001033
343.783113	1.001568
344.174605	1.000639
344.566033	0.999394
344.957397	0.999863
345.348697	1.000347
345.739934	1.000823
346.131106	1.001009
346.522215	0.999802
346.913260	0.999868
347.304241	0.999005
347.695159	1.000511
348.086012	0.999988
348.476802	0.998725
348.867528	0.999066
349.258191	1.000291
349.648789	0.999853
350.039324	0.999578
350.429796	1.000694
350.820203	0.998933
351.210548	0.999702
351.600828	0.999690
351.991045	1.000874
352.381198	0.999223
352.771288	0.999654
353.161314	1.001650
353.551276	1.000552
353.941175	0.998876
354.331010	1.001243
354.720782	1.001259
355.110490	1.000098
355.500135	1.000191
355.889717	0.999071
356.279235	1.000840
356.668689	1.001293
357.058080	0.999603
357.447408	1.000265
357.836672	1.000132
358.225873	0.999793
358.615010	0.999815
359.004084	0.999721
359.393095	1.001199
359.782043	0.999188
360.170927	1.001421
360.559748	0.999786
360.948505	0.998898
361.337199	0.999443
361.725830	1.001006
362.114398	0.999616
362.502903	0.998294
362.891344	0.999440
363.279722	1.000137
363.668037	0.999941
364.056289	0.999966
364.444478	1.000583
364.832603	0.999550
365.220665	0.999957
365.608665	0.999158
365.996601	0.998909
366.384474	0.997868
366.772284	0.999438
367.160031	0.998176
367.547715	0.998895
367.935336	0.997881
368.322893	0.996778
368.710388	0.996173
369.097820	0.994103
369.485189	0.992898
369.872495	0.990709
370.259738	0.990109
370.646918	0.987791
371.034035	0.984641
371.421090	0.983844
371.808081	0.980147
372.195010	0.978723
372.581875	0.976170
372.968678	0.974001
373.355418	0.973006
373.742096	0.967950
374.128710	0.967874
374.515262	0.966015
374.901751	0.963383
375.288177	0.964059
375.674540	0.960988
376.060841	0.959827
376.447079	0.957887
376.833254	0.957804
377.219367	0.958129
377.605417	0.954389
377.991404	0.956057
378.377329	0.956236
378.763191	0.955018
379.148991	0.955489
379.534727	0.954711
379.920402	0.954422
380.306013	0.955957
380.691563	0.955705
381.077049	0.956235
381.462474	0.957904
381.847835	0.958167
382.233134	0.959861
382.618371	0.964218
383.003545	0.962241
383.388657	0.965462
383.773706	0.966953
384.158693	0.969022
384.543618	0.972945
384.928480	0.973438
385.313280	0.975877
385.698017	0.976740
386.082692	0.978006
386.467305	0.979629
386.851856	0.982766
387.236344	0.982967
387.620770	0.985376
388.005133	0.987130
388.389435	0.988362
388.773674	0.989900
389.157851	0.990070
389.541965	0.992871
389.926018	0.993460
390.310008	0.994117
390.693936	0.996193
391.077802	0.996861
391.461606	0.995664
391.845348	0.996645
392.229027	0.997828
392.612645	0.998832
392.996200	0.998887
393.379694	0.998428
393.763125	0.999661
394.146494	0.998647
394.529801	1.000241
394.913047	0.998062
395.296230	1.000093
395.679351	0.999290
396.062410	0.999876
396.445408	0.999723
396.828343	1.000926
397.211217	0.999965
397.594028	0.999038
397.976778	1.001240
398.359466	1.000316
398.742092	1.001077
399.124656	0.999846
399.507158	0.999121
399.889598	1.001880
400.271977	1.000879
400.654294	0.999990
401.036549	1.001433
401.418742	1.000863
401.800874	1.000966
402.182944	1.000066
402.564952	1.000432
402.946898	1.001273
403.328783	1.002104
403.710606	0.999917
404.092367	1.000418
404.474067	1.001113
404.855705	1.001049
405.237282	1.000424
405.618797	1.001210
406.000250	1.000310
406.381642	0.999871
406.762972	1.001006
407.144240	1.000717
407.525447	0.999016
407.906593	1.000606
408.287677	1.000831
408.668700	1.000849
409.049661	1.000887
409.430560	1.000907
409.811399	1.000417
410.192176	1.001044
410.572891	1.000977
410.953545	1.000407
411.334138	1.001611
411.714669	1.000984
412.095139	1.000893
412.475547	1.001094
412.855894	1.000738
413.236180	1.000785
413.616405	1.000702
413.996568	1.000718
414.376670	0.999695
414.756711	1.000652
415.136691	1.000711
415.516609	0.999876
415.896466	1.001082
416.276262	0.999783
416.655997	1.001282
417.035670	1.000791
417.415283	1.000448
417.794834	1.000530
418.174324	1.001019
418.553753	1.001232
418.933121	1.000951
419.312428	1.000798
419.691674	1.001771
420.070859	1.000767
420.449983	1.000936
420.829045	1.000717
421.208047	1.001052
421.586988	1.000610
421.965867	0.999915
422.344686	1.001060
422.723444	1.000492
423.102141	1.000279
423.480777	1.000297
423.859352	1.000718
424.237866	1.000889
424.616319	1.001353
424.994712	1.000833
425.373044	1.001477
425.751314	1.001068
426.129524	1.001806
426.507673	1.000062
426.885762	1.001205
427.263789	1.000461
427.641756	1.000743
428.019662	1.000811
428.397508	1.001046
428.775292	1.001427
429.153016	0.999918
429.530679	1.001142
429.908282	1.001178
430.285824	1.000900
430.663305	1.001014
431.040726	1.001835
431.418086	1.000376
431.795385	1.001261
432.172624	1.000915
432.549802	1.000497
432.926920	1.001143
433.303977	1.000386
433.680974	1.002129
434.057910	1.001097
434.434786	0.999523
434.811601	1.000805
435.188355	1.001388
435.565050	1.001533
435.941683	1.000504
436.318257	1.000709
436.694770	1.000728
437.071222	1.001827
437.447614	1.001049
437.823946	1.001177
438.200218	1.000995
438.576429	1.001216
438.952580	1.001916
439.328670	0.999904
439.704700	1.000628
440.080670	1.001710
440.456580	1.001593
440.832429	1.000738
441.208218	1.000970
441.583947	1.001263
441.959616	0.999957
442.335224	1.001816
442.710773	1.001305
443.086261	1.001544
443.461689	1.001656
443.837057	1.002133
444.212365	1.001115
444.587612	1.002161
444.962800	1.001192
445.337927	1.001670
445.712995	1.000983
446.088002	1.001078
446.462949	1.000838
446.837837	1.001914
447.212664	1.000947
447.587431	1.001261
447.962139	1.001620
448.336786	1.000970
448.711374	1.000078
449.085901	1.001601
449.460369	1.001851
449.834776	1.000736
450.209124	1.000823
450.583412	1.001411
450.957640	1.001088
451.331808	1.001577
451.705917	1.000718
452.079965	1.001252
452.453954	1.001776
452.827883	1.001508
453.201752	1.001005
453.575562	1.000789
453.949311	1.001795
454.323001	1.001632
454.696632	1.000976
455.070202	1.001356
455.443713	1.000896
455.817164	1.000965
456.190556	1.000413
456.563888	1.001259
456.937160	1.000784
457.310373	1.001068
457.683526	1.001560
458.056619	1.001772
458.429653	1.001044
458.802628	1.001490
459.175542	1.002134
459.548398	1.001819
459.921194	1.000913
460.293930	1.002148
460.666607	1.001329
461.039224	1.000692
461.411782	1.001707
461.784280	1.000813
462.156719	1.002141
462.529099	1.002158
462.901419	1.001423
463.273680	1.000381
463.645882	1.000968
464.018024	1.001540
464.390106	1.000992
464.762130	1.002045
465.134094	1.001177
465.505999	1.001384
465.877845	1.001175
466.249631	1.000986
466.621358	1.001473
466.993026	1.001744
467.364634	1.001817
467.736184	1.001474
468.107674	1.001034
468.479105	1.001591
468.850477	1.001347
469.221790	1.001790
469.593043	1.001091
469.964238	1.001127
470.335373	1.000983
470.706449	1.001395
471.077467	1.001473
471.448425	1.001227
471.819324	1.001459
472.190164	1.001142
472.560945	1.001324
472.931667	1.000968
473.302330	1.001933
473.672934	1.001739
474.043479	1.001507
474.413965	1.001452
474.784393	1.001028
475.154761	1.001407
475.525070	1.001341
475.895321	1.001942
476.265513	1.001598
476.635645	1.001789
477.005719	1.001497
477.375734	1.001453
477.745691	1.000945
478.115588	1.001429
478.485427	1.001581
478.855207	1.001356
479.224928	1.001608
479.594591	1.001152
479.964194	1.000922
480.333739	1.001798
480.703226	1.001376
481.072653	1.001206
481.442022	1.001550
481.811333	1.000781
482.180584	1.001611
482.549777	1.001305
482.918912	1.001427
483.287988	1.001389
483.657005	1.001370
484.025964	1.000979
484.394864	1.001523
484.763706	1.000990
485.132489	1.001428
485.501213	1.001540
485.869879	1.001170
486.238487	1.000677
486.607036	1.001881
486.975527	1.001214
487.343959	1.001068
487.712333	1.001523
488.080648	1.001541
488.448905	1.001246
488.817104	1.001271
489.185244	1.001198
489.553326	1.001389
489.921350	1.001490
490.289315	1.001239
490.657222	1.000397
491.025070	1.001166
491.392861	1.001705
491.760593	1.001220
492.128267	1.000606
492.495883	1.000722
492.863440	1.001129
493.230939	1.001981
493.598380	1.001960
493.965763	1.000928
494.333088	1.000534
494.700354	1.000892
495.067563	1.000864
495.434713	1.002101
495.801805	1.001287
496.168839	1.001300
496.535815	1.000908
496.902733	1.001003
497.269593	1.000604
497.636395	1.001053
498.003139	1.000767
498.369825	1.001595
498.736453	1.001570
499.103023	1.001659
499.469535	1.001202
499.835989	1.001414
500.202385	1.000773
500.568723	1.001392
500.935003	1.000903
501.301226	1.001573
501.667390	1.001039
502.033497	1.001242
502.399546	1.001194
502.765537	1.001247
503.131470	1.000937
503.497345	1.001846
503.863163	1.001241
504.228923	1.001151
504.594625	1.001001
504.960269	1.001089
505.325856	1.002067
505.691385	1.001434
506.056856	1.001979
506.422270	1.001239
506.787625	1.001101
507.152924	1.001681
507.518164	1.000920
507.883347	1.000662
508.248472	1.001297
508.613540	1.000681
508.978550	1.001375
509.343503	1.001009
509.708398	1.001913
510.073236	1.001649
510.438016	1.001157
510.802738	1.001281
511.167403	1.000398
511.532010	1.001283
511.896561	1.001255
512.261053	1.001221
512.625488	1.001389
512.989866	1.001613
513.354186	1.001208
513.718449	1.001256
514.082655	1.001233
514.446803	1.001101
514.810894	1.001649
515.174927	1.001424
515.538904	1.001943
515.902822	1.000984
516.266684	1.001124
516.630488	1.001015
516.994235	1.001383
517.357925	1.002009
517.721558	1.001603
518.085133	1.000452
518.448651	1.000958
518.812112	1.001608
519.175516	1.001068
519.538863	1.000890
519.902152	1.001386
520.265385	1.001543
520.628560	1.001245
520.991678	1.001200
521.354739	1.001846
521.717743	1.001470
522.080690	1.000891
522.443580	1.000940
522.806413	1.001058
523.169189	1.001684
523.531908	1.000620
523.894569	1.001323
524.257174	1.001244
524.619722	1.001121
524.982213	1.001468
525.344647	1.000875
525.707025	1.001192
526.069345	1.000795
526.431608	1.000906
526.793815	1.001635
527.155964	1.001665
527.518057	1.001525
527.880093	1.001324
528.242072	1.001288
528.603995	1.000816
528.965860	1.001824
529.327669	1.001036
529.689421	1.000774
530.051117	1.001552
530.412755	1.001480
530.774337	1.000853
531.135862	1.001949
531.497331	1.001585
531.858743	1.001786
532.220098	1.000559
532.581396	1.001224
532.942638	1.001567
533.303824	1.002284
533.664953	1.001095
534.026025	1.001833
534.387040	1.001825
534.747999	1.001345
535.108902	1.001150
535.469748	1.001928
535.830537	1.001865
536.191270	1.002122
536.551947	1.001075
536.912567	1.001371
537.273131	1.001281
537.633638	1.001665
537.994089	1.001985
538.354483	1.001650
538.714821	1.001222
539.075103	1.000991
539.435328	1.002068
539.795497	1.001172
540.155609	1.000605
540.515665	1.001759
540.875665	1.000841
541.235609	1.001566
541.595496	1.000919
541.955328	1.001052
542.315102	1.001543
542.674821	1.001695
543.034483	1.001426
543.394090	1.000656
543.753640	1.001591
544.113134	1.001375
544.472571	1.001822
544.831953	1.001155
545.191278	1.001355
545.550548	1.000969
545.909761	1.001517
546.268918	1.002182
546.628019	1.002456
546.987064	1.001230
547.346053	1.001675
547.704986	1.000988
548.063863	1.000870
548.422684	1.001499
548.781449	1.001654
549.140158	1.001519
549.498811	1.000711
549.857408	1.000463
550.215949	1.001037
550.574434	1.001093
550.932864	1.001799
551.291237	1.000917
551.649555	1.002592
552.007817	1.001266
552.366022	1.001678
552.724173	1.001514
553.082267	1.000942
553.440305	1.001156
553.798288	1.001005
554.156215	1.001213
554.514086	1.001553
554.871902	1.001318
555.229661	1.001183
555.587365	1.001246
555.945014	1.001704
556.302606	1.001123
556.660143	1.001815
557.017625	1.001745
557.375050	1.000538
557.732421	1.001680
558.089735	1.000675
558.446994	1.001108
558.804197	1.001927
559.161345	1.001112
559.518437	1.001523
559.875474	1.001517
560.232455	1.000666
560.589381	1.001683
560.946251	1.001081
561.303065	1.000642
561.659825	1.000612
562.016528	1.001730
562.373177	1.001732
562.729770	1.001301
563.086307	1.000762
563.442789	1.000446
563.799216	1.000726
564.155587	1.000990
564.511904	1.001272
564.868164	1.000561
565.224370	1.000939
565.580520	1.001614
565.936615	1.001713
566.292654	1.001094
566.648638	1.001450
567.004567	1.001380
567.360441	1.001613
567.716260	1.000821
568.072023	1.000450
568.427732	1.001144
568.783385	1.001477
569.138982	1.001410
569.494525	1.000959
569.850013	1.001945
570.205445	1.001440
570.560823	1.000686
570.916145	1.001453
571.271412	1.001115
571.626625	1.001348
571.981782	1.000863
572.336884	1.001840
572.691931	1.001724
573.046923	1.002109
573.401860	1.000801
573.756743	1.001442
574.111570	1.000934
574.466342	1.001727
574.821059	1.001038
575.175722	1.001292
575.530330	1.001743
575.884882	1.001122
576.239380	1.001562
576.593823	1.001329
576.948211	1.001578
577.302544	1.001036
577.656823	1.000911
578.011047	1.001130
578.365216	1.002142
578.719330	1.000966
579.073389	1.000574
579.427394	1.001159
579.781344	1.001670
580.135239	1.000737
580.489080	1.001062
580.842866	1.001340
581.196597	1.001078
581.550273	1.000471
581.903895	1.001262
582.257463	1.001023
582.610975	1.000771
582.964434	1.001206
583.317837	1.001779
583.671186	1.001304
584.024481	1.001156
584.377721	1.000869
584.730906	1.001741
585.084037	1.002193
585.437113	1.001680
585.790135	1.000695
586.143103	1.001643
586.496016	1.000906
586.848874	1.001389
587.201679	1.001705
587.554428	1.000613
587.907124	1.001596
588.259765	1.001018
588.612352	1.001890
588.964884	1.001355
589.317362	1.000878
589.669786	1.000904
590.022155	1.000722
590.374470	1.000962
590.726731	1.000902
591.078937	1.001496
591.431090	1.001207
591.783188	1.000900
592.135232	1.002030
592.487222	1.001313
592.839157	1.001442
593.191038	1.001156
593.542866	1.001183
593.894639	1.000117
594.246358	1.001649
594.598022	1.001259
594.949633	1.000915
595.301190	1.001097
595.652692	1.000760
596.004141	1.001447
596.355535	1.000492
596.706876	1.001623
597.058162	1.001440
597.409395	1.001238
597.760573	1.000741
598.111698	1.000386
598.462768	0.999557
598.813785	1.000696
599.164748	1.000799
599.515657	1.000021
599.866511	1.001755
600.217312	1.001569
600.568060	1.000749
600.918753	1.001194
601.269392	1.001209
601.619978	1.001011
601.970510	1.001180
602.320988	1.001466
602.671412	1.000328
603.021783	1.001342
603.372100	1.001263
603.722363	1.001630
604.072572	1.001013
604.422728	1.000716
604.772830	1.000331
605.122878	1.000756
605.472872	1.001351
605.822813	1.000124
606.172701	1.000649
606.522534	1.000956
606.872314	1.001735
607.222041	1.000106
607.571714	1.000954
607.921333	1.001232
608.270899	1.001126
608.620411	1.000864
608.969870	1.001068
609.319276	1.000846
609.668627	1.001619
610.017926	1.000792
610.367171	1.000908
610.716362	1.000290
611.065500	1.000315
611.414585	1.001709
611.763616	1.000367
612.112594	1.000916
612.461518	1.000351
612.810389	1.000905
613.159207	1.000417
613.507971	1.000075
613.856682	1.001603
614.205340	0.999704
614.553945	1.001414
614.902496	1.001010
615.250994	1.000410
615.599439	1.000819
615.947830	1.000439
616.296169	1.001381
616.644454	1.000703
616.992686	1.001324
617.340864	1.001086
617.688990	1.000292
618.037063	1.000744
618.385082	1.000853
618.733048	1.000229
619.080961	1.000489
619.428821	1.001525
619.776628	1.000197
620.124382	1.001575
620.472083	1.001878
620.819731	1.001341
621.167326	1.000562
621.514868	1.001038
621.862357	1.000300
622.209793	1.000093
622.557176	1.000349
622.904506	1.000503
623.251783	1.000876
623.599007	1.001478
623.946179	1.000364
624.293297	1.000420
624.640363	1.000595
624.987376	1.000003
625.334336	1.000655
625.681243	1.000011
626.028097	1.000921
626.374899	1.001432
626.721647	1.000991
627.068343	1.000078
627.414987	1.000628
627.761577	1.000259
628.108115	1.000610
628.454600	1.001607
628.801032	1.000762
629.147412	1.001229
629.493739	1.001748
629.840014	1.000391
630.186236	1.000346
630.532405	1.000871
630.878521	1.000572
631.224585	1.001017
631.570597	0.999657
631.916556	1.000767
632.262462	0.999638
632.608316	1.000570
632.954117	0.999827
633.299866	1.000264
633.645562	0.999205
633.991206	1.001153
634.336797	1.000954
634.682336	1.000719
635.027823	1.000991
635.373257	1.000933
635.718639	1.000594
636.063968	1.000466
636.409245	1.000451
636.754470	1.000847
637.099642	1.000858
637.444762	1.000975
637.789829	1.001232
638.134845	1.000580
638.479808	0.999554
638.824719	1.001028
639.169577	1.000194
639.514383	1.001318
639.859137	1.000564
640.203839	0.999829
640.548489	1.000092
640.893086	1.000235
641.237632	0.999977
641.582125	0.999726
641.926566	1.001196
642.270955	1.000902
642.615292	1.000265
642.959576	1.000306
643.303809	1.001000
643.647990	1.000643
643.992118	1.001309
644.336195	0.999687
644.680219	1.000613
645.024192	1.000496
645.368112	0.999692
645.711981	1.000992
646.055797	0.999992
646.399562	0.999674
646.743274	1.000895
647.086935	0.999742
647.430544	0.999792
647.774101	1.000022
648.117606	1.001035
648.461059	1.000680
648.804460	1.000153
649.147810	0.999878
649.491108	1.000332
649.834354	1.000721
650.177548	1.000147
650.520690	1.000569
650.863781	0.999652
651.206820	0.999968
651.549807	1.000309
651.892742	1.000597
652.235626	1.000847
652.578458	0.999945
652.921238	1.001147
653.263967	1.000857
653.606644	0.999122
653.949269	1.001490
654.291843	0.999737
654.634365	1.000806
654.976836	0.999364
655.319255	1.001277
655.661622	1.000128
656.003938	1.000864
656.346203	0.999358
656.688416	1.000953
657.030577	1.001394
657.372687	1.000163
657.714746	0.999881
658.056753	0.999933
658.398708	0.999191
658.740612	1.000672
659.082465	1.000461
659.424266	0.999884
659.766016	0.999803
660.107715	1.001073
660.449362	1.000051
660.790958	1.000763
661.132503	1.001281
661.473996	0.999580
661.815438	1.000788
662.156829	1.000531
662.498168	0.999903
662.839456	0.999494
663.180693	1.000553
663.521879	1.000325
663.863013	1.000455
664.204097	0.999668
664.545129	0.999458
664.886110	1.000025
665.227040	1.000229
665.567918	1.000032
665.908746	0.999404
666.249522	1.000278
666.590248	0.999770
666.930922	0.999740
667.271545	0.999992
667.612118	1.000458
667.952639	0.999545
668.293109	1.000164
668.633528	0.999813
668.973896	0.999769
669.314213	0.999445
669.654480	1.000141
669.994695	0.999309
670.334859	1.000081
670.674973	0.999481
671.015035	1.000520
671.355047	0.999967
671.695008	0.999340
672.034918	0.999589
672.374777	1.000240
672.714585	1.000105
673.054342	1.000449
673.394049	0.999164
673.733705	0.999787
674.073310	0.999846
674.412864	1.000208
674.752368	0.999372
675.091820	1.000570
675.431223	1.000108
675.770574	0.999012
676.109875	1.000384
676.449125	0.999003
676.788324	0.999953
677.127473	1.000395
677.466571	0.999615
677.805619	0.998871
678.144616	1.000598
678.483562	1.000222
678.822458	1.000493
679.161303	1.000253
679.500098	0.999719
679.838842	1.000803
680.177535	0.999541
680.516179	0.999456
680.854771	0.999499
681.193314	0.999301
681.531805	0.999588
681.870247	1.000222
682.208638	0.999950
682.546978	0.998920
682.885268	1.000050
683.223508	0.998929
683.561697	0.999696
683.899836	0.999468
684.237925	0.999124
684.575963	0.999849
684.913951	0.999995
685.251889	0.999688
685.589776	0.999245
685.927614	0.999137
686.265401	0.998537
686.603137	0.999370
686.940824	0.999354
687.278460	1.000295
687.616046	0.998877
687.953582	0.998979
688.291068	1.000040
688.628504	0.998942
688.965889	0.999211
689.303224	0.998152
689.640510	0.999385
689.977745	0.998705
690.314930	0.999053
690.652065	0.999548
690.989150	0.999205
691.326185	0.999420
691.663170	0.998874
692.000105	1.000077
692.336990	0.998834
692.673825	0.998464
693.010610	0.999332
693.347345	1.000300
693.684030	0.998806
694.020665	0.999130
694.357251	0.999117
694.693786	1.000337
695.030272	0.998424
695.366707	0.999031
695.703093	0.998119
696.039429	0.998209
696.375716	0.999284
696.711952	0.999177
697.048139	0.999456
697.384276	0.999084
697.720363	0.999672
698.056400	0.997584
698.392388	0.998433
698.728326	0.998347
699.064214	0.999643
699.400053	0.999049
699.735842	0.999822
700.071581	0.998171
700.407270	0.998609
700.742910	0.999639
701.078501	0.999471
701.414042	0.999694
701.749533	0.998919
702.084974	1.000046
702.420366	0.999984
702.755709	0.999268
703.091002	1.000027
703.426246	1.000251
703.761440	0.999541
704.096584	0.998016
704.431679	0.998726
704.766725	0.999316
705.101721	1.000099
705.436668	0.999832
705.771565	0.998951
706.106413	0.998182
706.441212	0.999503
706.775961	0.999188
707.110661	0.998238
707.445311	0.999796
707.779913	0.998965
708.114465	0.999288
708.448967	0.999276
708.783421	0.998511
709.117825	0.998543
709.452180	0.998911
709.786485	0.998692
710.120742	0.998740
710.454949	0.998112
710.789107	0.999157
711.123216	0.998295
711.457275	0.998258
711.791286	0.998944
712.125247	1.000691
712.459159	0.998854
712.793023	0.998418
713.126837	1.000161
713.460602	0.999431
713.794318	0.999023
714.127985	0.997959
714.461602	0.999328
714.795171	0.999122
715.128691	0.998640
715.462162	0.999841
715.795584	0.999367
716.128957	0.999216
716.462281	0.999137
716.795556	0.998253
717.128782	0.999424
717.461960	0.998561
717.795088	0.999046
718.128167	1.000505
718.461198	0.998347
718.794180	0.999531
719.127113	0.999525
719.459997	0.998236
719.792833	0.999268
720.125619	0.999045
720.458357	0.998814
720.791046	0.999676
721.123686	0.999862
721.456278	0.998804
721.788821	0.998479
722.121315	0.999180
722.453761	0.999543
722.786158	0.998828
723.118506	0.998130
723.450805	0.999354
723.783056	0.999357
724.115259	0.998784
724.447412	0.999681
724.779518	0.999812
725.111574	0.998285
725.443582	0.999302
725.775542	0.998859
726.107453	0.999235
726.439315	1.000224
726.771129	0.999078
727.102895	0.998991
727.434612	0.999933
727.766281	0.998751
728.097901	0.999035
728.429473	0.999842
728.760996	0.997773
729.092471	0.998046
729.423897	0.998552
729.755276	0.999113
730.086606	0.998554
730.417887	0.999718
730.749120	0.999480
731.080305	0.998829
731.411442	0.998508
731.742530	0.998438
732.073570	0.998045
732.404562	0.998820
732.735506	0.999324
733.066401	0.999271
733.397249	0.998645
733.728048	0.999545
734.058798	0.998926
734.389501	0.999249
734.720156	0.999741
735.050762	0.999861
735.381320	0.998710
735.711831	0.998979
736.042293	0.998037
736.372707	0.999746
736.703073	0.997673
737.033391	0.998430
737.363661	0.999167
737.693883	0.998804
738.024056	0.998243
738.354182	0.998880
738.684260	0.998886
739.014290	0.998450
739.344272	0.999001
739.674207	0.999126
740.004093	0.999547
740.333931	0.998345
740.663722	0.998092
740.993464	0.999017
741.323159	0.998714
741.652806	0.999255
741.982405	0.998929
742.311956	0.999072
742.641460	0.999312
742.970915	0.997809
743.300323	0.998452
743.629683	0.998605
743.958996	1.000211
744.288260	0.998328
744.617477	0.999156
744.946647	0.997925
745.275768	0.998865
745.604842	0.999516
745.933869	0.998666
746.262847	0.998982
746.591778	0.998236
746.920662	0.999608
747.249498	1.000041
747.578286	0.999269
747.907027	0.998567
748.235720	0.998731
748.564365	0.999312
748.892963	0.998965
749.221514	0.999614
749.550017	0.998808
749.878473	0.998661
750.206881	1.000984
750.535242	0.999104
750.863555	0.998525
751.191821	0.999858
751.520039	0.998555
751.848210	0.998072
752.176334	0.998989
752.504411	0.999030
752.832440	0.997855
753.160421	0.998894
753.488356	0.997577
753.816243	0.998317
754.144082	0.998446
754.471875	0.998864
754.799620	0.998656
755.127318	0.998922
755.454969	0.999183
755.782572	1.000430
756.110129	0.998543
756.437638	0.999891
756.765100	0.998986
757.092515	0.998895
757.419882	0.998661
757.747203	0.998164
758.074477	0.999473
758.401703	0.999254
758.728882	0.999317
759.056014	0.999512
759.383099	0.998970
759.710138	0.998651
760.037129	0.998954
760.364073	0.999749
760.690970	0.999523
761.017820	0.998584
761.344623	1.000334
761.671379	0.999326
761.998088	0.999491
762.324751	0.998563
762.651366	0.998132
762.977935	0.998176
763.304456	0.997991
763.630931	0.996943
763.957359	0.997282
764.283740	0.997373
764.610074	0.998551
764.936362	0.997325
765.262602	0.998887
765.588796	0.997917
765.914943	0.998163
766.241044	0.999450
766.567097	0.998781
766.893104	0.998835
767.219064	0.998010
767.544978	0.999255
767.870845	1.000327
768.196665	0.998959
768.522438	0.998618
768.848165	0.999174
769.173846	0.999325
769.499479	0.999292
769.825066	0.999463
770.150607	0.999546
770.476101	0.999536
770.801548	1.000212
771.126949	0.999196
771.452303	0.999914
771.777611	0.999519
772.102872	0.999857
772.428087	0.999130
772.753256	0.999291
773.078378	0.999451
773.403453	0.998021
773.728482	0.999742
774.053465	0.998999
774.378401	0.998686
774.703291	0.999326
775.028135	1.000411
775.352932	0.998399
775.677683	0.999218
776.002388	0.999079
776.327046	0.998900
776.651658	1.000862
776.976224	0.999171
777.300743	0.999088
777.625216	0.997938
777.949643	0.999556
778.274024	0.998419
778.598359	0.999528
778.922647	0.999376
779.246889	1.000269
779.571086	0.999788
779.895236	0.999335
780.219339	0.999888
780.543397	0.998067
780.867409	0.999853
781.191374	0.998892
781.515294	1.000142
781.839167	0.999608
782.162995	0.999755
782.486776	0.999058
782.810511	0.999165
783.134201	0.999724
783.457844	0.999054
783.781441	0.999038
784.104993	0.996995
784.428498	0.999314
784.751958	0.999731
785.075372	1.000435
785.398739	0.999473
785.722061	0.997729
786.045337	0.999321
786.368568	0.998538
786.691752	0.998841
787.014891	0.999111
787.337983	0.997985
787.661030	0.999171
787.984031	1.000118
788.306987	0.999421
788.629897	0.997659
788.952760	0.999163
789.275579	0.999539
789.598351	0.999349
789.921078	0.999868
790.243759	0.997833
790.566395	0.999141
790.888984	1.000102
791.211529	0.999504
791.534027	0.999374
791.856480	0.998874
792.178888	0.998664
792.501249	0.999487
792.823566	0.999756
793.145836	0.998747
793.468062	0.999121
793.790241	1.000062
794.112375	0.998960
794.434464	1.000352
794.756507	1.000073
795.078505	0.999435
795.400457	0.999956
795.722364	0.999123
796.044226	0.999129
796.366042	0.999778
796.687812	0.997823
797.009538	0.999746
797.331218	1.001489
797.652852	0.999789
797.974442	0.997506
798.295986	0.999674
798.617484	0.998671
798.938938	0.999723
799.260346	0.999447
799.581709	0.998428
799.903026	0.998701
800.224299	0.999299
800.545526	0.997957
800.866708	0.999066
801.187845	1.000073
801.508936	0.999676
801.829983	0.999602
802.150984	0.999686
802.471940	1.000556
802.792851	0.999297
803.113717	1.001031
803.434538	1.000328
803.755314	1.000106
804.076045	0.999679
804.396731	0.998756
804.717372	0.998277
805.037967	1.000788
805.358518	0.999279
805.679024	0.999052
805.999485	1.000182
806.319901	1.000277
806.640272	1.000234
806.960598	0.999839
807.280879	0.999893
807.601115	0.999479
807.921306	0.999980
808.241453	0.999363
808.561554	0.998922
808.881611	0.999737
809.201623	0.999399
809.521590	0.999655
809.841513	0.999930
810.161390	0.998960
810.481223	0.999571
810.801011	0.999428
811.120755	1.000155
811.440453	0.999483
811.760107	0.999363
812.079716	0.999356
812.399281	0.999551
812.718801	0.999044
813.038276	0.999955
813.357707	0.999829
813.677093	1.000163
813.996434	0.999099
814.315731	1.001915
814.634983	0.999455
814.954191	0.999993
815.273354	0.998972
815.592473	0.999426
815.911547	0.999650
816.230577	0.999183
816.549562	1.000160
816.868502	0.998693
817.187399	1.000404
817.506250	0.999227
817.825058	0.997928
818.143821	1.000476
818.462539	0.998705
818.781213	0.999684
819.099843	0.999321
819.418429	0.999064
819.736970	0.999954
820.055466	0.999199
820.373919	0.998779
820.692327	0.998646
821.010691	0.998721
821.329011	0.996842
821.647286	0.996306
821.965517	0.997076
822.283704	0.996923
822.601847	0.996918
822.919945	0.996561
823.237999	0.997207
823.556010	0.996360
823.873976	0.996747
824.191897	0.998260
824.509775	0.998025
824.827609	0.998325
825.145398	0.999289
825.463144	0.997624
825.780845	0.997601
826.098502	0.996638
826.416116	0.997815
826.733685	0.997739
827.051210	0.996511
827.368692	0.997334
827.686129	0.997037
828.003522	0.999729
828.320872	0.998265
828.638177	0.998155
828.955439	0.999749
829.272656	0.999498
829.589830	0.999344
829.906960	0.999248
830.224046	0.998379
830.541088	0.998454
830.858086	0.999376
831.175041	1.000496
831.491952	0.998710
831.808819	0.999580
832.125642	1.000027
832.442421	1.000961
832.759157	1.000285
833.075849	0.999287
833.392497	0.998020
833.709101	0.998744
834.025662	0.998692
834.342179	0.998639
834.658653	0.999374
834.975083	0.998188
835.291469	0.999718
835.607811	0.998614
835.924110	0.998970
836.240366	0.999485
836.556578	0.999436
836.872746	0.999971
837.188871	0.999578
837.504952	0.999199
837.820990	0.998845
838.136984	0.998687
838.452935	0.998820
838.768842	1.000452
839.084706	0.999875
839.400526	0.999879
839.716303	0.998743
840.032037	1.000170
840.347727	1.000372
840.663373	0.999284
840.978977	0.999448
841.294537	1.000212
841.610054	0.999995
841.925527	0.999745
842.240957	0.998902
842.556344	0.999563
842.871687	0.999619
843.186987	1.000316
843.502244	0.999846
843.817458	0.999817
844.132629	0.998647
844.447756	0.999437
844.762840	1.000194
845.077881	1.000486
845.392879	0.998957
845.707833	1.000273
846.022745	0.999235
846.337613	0.999311
846.652438	0.999897
846.967221	1.000001
847.281960	1.000581
847.596656	1.001885
847.911309	1.000662
848.225919	0.999023
848.540485	1.000270
848.855009	1.000151
849.169490	1.000837
849.483928	1.000324
849.798323	0.997951
850.112675	1.000591
850.426984	0.999941
850.741251	0.999663
851.055474	1.000038
851.369654	1.000276
851.683792	0.999508
851.997887	0.999616
852.311938	0.999824
852.625947	0.998644
852.939914	0.998490
853.253837	1.000362
853.567718	1.000668
853.881555	0.999882
854.195350	1.000145
854.509103	0.999983
854.822812	1.000656
855.136479	1.000825
855.450103	0.999648
855.763685	1.000432
856.077224	0.999775
856.390720	1.000098
856.704173	0.999959
857.017584	1.000296
857.330953	1.000022
857.644278	1.000949
857.957561	0.999293
858.270802	1.000973
858.584000	1.000121
858.897155	0.998542
859.210268	0.999468
859.523339	1.000190
859.836367	1.001283
860.149352	0.998804
860.462295	0.999890
860.775195	1.000310
861.088054	0.999727
861.400869	0.999712
861.713642	0.998624
862.026373	1.001334
862.339062	0.999804
862.651708	0.999763
862.964312	0.999333
863.276873	0.999639
863.589392	1.000382
863.901869	1.000167
864.214303	1.000110
864.526696	0.999757
864.839045	1.000224
865.151353	1.000009
865.463619	0.998440
865.775842	1.001106
866.088023	1.001978
866.400162	1.000016
866.712258	1.000500
867.024313	1.000035
867.336325	1.000772
867.648296	1.000811
867.960224	0.999760
868.272110	1.001089
868.583954	1.000782
868.895755	1.000377
869.207515	0.999659
869.519233	1.000218
869.830909	0.999515
870.142542	0.999669
870.454134	0.999930
870.765684	1.001009
871.077191	1.000662
871.388657	0.999559
871.700081	1.000137
872.011463	1.000874
872.322803	0.999974
872.634101	0.999103
872.945357	1.000083
873.256571	0.999358
873.567744	0.999721
873.878874	0.999905
874.189963	0.999003
874.501010	1.001777
874.812015	1.000215
875.122979	1.001118
875.433900	0.999592
875.744780	1.000296
876.055618	0.999627
876.366415	0.999503
876.677169	0.999284
876.987882	1.000086
877.298554	1.000950
877.609183	1.000307
877.919771	1.000540
878.230317	1.000475
878.540822	0.999630
878.851285	0.999393
879.161707	0.999980
879.472087	1.000647
879.782425	0.998813
880.092722	0.999182
880.402977	0.998785
880.713191	0.998762
881.023363	0.998756
881.333494	0.997920
881.643583	0.999817
881.953631	0.999352
882.263637	0.997963
882.573602	0.998775
882.883526	0.998436
883.193408	0.999521
883.503248	0.998777
883.813048	0.998100
884.122806	0.999021
884.432522	0.999297
884.742197	1.000191
885.051831	0.999770
885.361424	1.000080
885.670975	1.000639
885.980485	0.999654
886.289954	0.999018
886.599382	0.998051
886.908768	1.000982
887.218113	0.999241
887.527417	1.000086
887.836680	1.000649
888.145901	0.999702
888.455082	1.001051
888.764221	1.000152
889.073319	0.999126
889.382376	1.000322
889.691392	0.998712
890.000366	1.000818
890.309300	0.999373
890.618193	1.000381
890.927044	0.999989
891.235855	0.999495
891.544625	0.999515
891.853353	0.999607
892.162041	0.999903
892.470687	1.000389
892.779293	0.999608
893.087858	0.999195
893.396381	1.000388
893.704864	0.999104
894.013306	0.999212
894.321707	1.000684
894.630068	0.998986
894.938387	0.998980
895.246665	0.998346
895.554903	0.999208
895.863100	1.000158
896.171256	0.999409
896.479371	0.999554
896.787446	0.998804
897.095480	0.999470
897.403473	1.000229
897.711425	1.000399
898.019336	1.001403
898.327207	1.000823
898.635038	0.998630
898.942827	1.000920
899.250576	0.999646
899.558284	1.000148
899.865952	0.999042
900.173579	0.999796
900.481165	1.000051
900.788711	0.999468
901.096216	0.999748
901.403681	1.000757
901.711105	1.000601
902.018489	0.999801
902.325832	1.000182
902.633135	0.999430
902.940397	1.000733
903.247619	0.999579
903.554800	0.999899
903.861941	0.999478
904.169041	0.999709
904.476101	1.000761
904.783121	0.999878
905.090100	1.000211
905.397039	1.000352
905.703938	0.999368
906.010796	0.999218
906.317614	0.999951
906.624391	0.999421
906.931129	1.000104
907.237826	1.000028
907.544483	0.999523
907.851099	0.999616
908.157675	0.999809
908.464211	1.000781
908.770707	0.998599
909.077163	1.000523
909.383578	0.999939
909.689954	0.999281
909.996289	1.000815
910.302584	1.000387
910.608839	1.000927
910.915054	0.999485
911.221229	1.000598
911.527363	0.998995
911.833458	0.999904
912.139513	1.000975
912.445527	1.000605
912.751502	0.999660
913.057436	0.999719
913.363331	1.000678
913.669186	1.001806
913.975000	1.000544
914.280775	0.999735
914.586510	0.999896
914.892205	0.999544
915.197859	0.999662
915.503475	1.000352
915.809050	1.000537
916.114585	0.997913
916.420081	0.999929
916.725536	1.000116
917.030952	1.000252
917.336328	1.000121
917.641665	0.998728
917.946961	0.999525
918.252218	0.999375
918.557435	1.000283
918.862612	1.000374
919.167750	0.998905
919.472848	1.000414
919.777906	1.000203
920.082925	1.001021
920.387904	1.000676
920.692843	0.999952
920.997743	0.999572
921.302603	0.998995
921.607423	0.998475
921.912204	1.000207
922.216946	1.000878
922.521647	1.000491
922.826310	0.999374
923.130932	1.000820
923.435516	1.000402
923.740059	1.000661
924.044564	0.999102
924.349028	0.998927
924.653454	0.999394
924.957840	0.999989
925.262186	0.999485
925.566493	1.000887
925.870761	0.999172
926.174989	0.999237
926.479178	1.000308
926.783328	1.000243
927.087438	0.999808
927.391509	0.999668
927.695541	1.000192
927.999533	1.000192
928.303486	0.999831
928.607400	1.000263
928.911275	1.000214
929.215110	1.001290
929.518906	0.999647
929.822663	1.001243
930.126381	1.001023
930.430060	1.000491
930.733699	1.001533
931.037299	1.001319
931.340861	1.001855
931.644383	1.000124
931.947866	1.000255
932.251309	1.000073
932.554714	0.999957
932.858080	1.001324
933.161407	0.999152
933.464694	0.999053
933.767943	1.000561
934.071153	1.001337
934.374323	1.002112
934.677455	1.001038
934.980548	0.999546
935.283602	1.000990
935.586617	1.000478
935.889593	1.001276
936.192530	1.001086
936.495428	0.999379
936.798287	1.000443
937.101108	0.999221
937.403890	1.001081
937.706632	1.000535
938.009336	1.000644
938.312002	0.999447
938.614628	1.000563
938.917216	0.999485
939.219765	1.000657
939.522275	1.000454
939.824747	0.999509
940.127179	1.000535
940.429573	1.001915
940.731929	0.999930
941.034246	1.000206
941.336524	0.998681
941.638763	0.999648
941.940964	1.000285
942.243126	0.999686
942.545250	1.000247
942.847335	1.000725
943.149381	1.001224
943.451389	1.000049
943.753359	1.000062
944.055290	1.001589
944.357182	1.000030
944.659036	1.001143
944.960851	1.000381
945.262628	1.000257
945.564367	1.000493
945.866067	0.999367
946.167729	1.000315
946.469352	1.000537
946.770937	0.998703
947.072484	1.000659
947.373992	1.000320
947.675462	0.998468
947.976893	1.000078
948.278286	1.002678
948.579641	1.000784
948.880958	0.999962
949.182236	1.000045
949.483476	1.001261
949.784678	1.000246
950.085841	1.000542
950.386967	1.000176
950.688054	1.000713
950.989103	0.999017
951.290114	0.999379
951.591087	1.000255
951.892021	1.000015
952.192917	1.000787
952.493776	1.000544
952.794596	1.000223
953.095378	1.000625
953.396122	1.000075
953.696828	1.000804
953.997496	0.999125
954.298126	1.001172
954.598718	1.000273
954.899272	1.000216
955.199788	0.999988
955.500266	1.000862
955.800706	0.999468
956.101108	1.000660
956.401472	1.002147
956.701798	0.999276
957.002087	0.999676
957.302337	0.999827
957.602550	1.000328
957.902724	0.999941
958.202861	1.000193
958.502960	0.999486
958.803022	1.001144
959.103045	1.000166
959.403031	1.000725
959.702979	1.000945
960.002889	0.999691
960.302762	1.000507
960.602596	0.999870
960.902393	0.999748
961.202153	1.000307
961.501875	1.000537
961.801559	1.000723
962.101205	0.999509
962.400814	1.000476
962.700385	1.000856
962.999918	1.000282
963.299414	1.000009
963.598873	1.001192
963.898293	1.000879
964.197677	0.998823
964.497022	1.000637
964.796331	0.999648
965.095601	1.001108
965.394835	1.000211
965.694030	1.000424
965.993189	1.000321
966.292309	1.001281
966.591393	0.998193
966.890439	1.000603
967.189447	0.998998
967.488419	0.999841
967.787353	1.000079
968.086249	1.000169
968.385108	1.000036
968.683930	1.001607
968.982714	0.999756
969.281462	0.998902
969.580172	1.000382
969.878844	1.001098
970.177480	1.000084
970.476078	1.001341
970.774639	0.999469
971.073162	0.999820
971.371649	1.000172
971.670098	1.000660
971.968510	1.000893
972.266885	0.999970
972.565223	1.000563
972.863524	0.999599
973.161788	0.999689
973.460014	1.001081
973.758204	1.000002
974.056356	0.999604
974.354471	1.000104
974.652550	1.000613
974.950591	1.000256
975.248595	0.999893
975.546563	1.001131
975.844493	1.000846
976.142386	0.999941
976.440243	1.001117
976.738062	1.000300
977.035845	0.999412
977.333590	1.001922
977.631299	0.999489
977.928971	1.000298
978.226606	1.000148
978.524204	1.000071
978.821765	1.000916
979.119290	1.001328
979.416777	1.000521
979.714228	1.000567
980.011642	1.001127
980.309020	0.999966
980.606360	1.000187
980.903664	1.000653
981.200931	1.000061
981.498162	0.999477
981.795356	0.999578
982.092513	1.000134
982.389633	1.000804
982.686717	0.999066
982.983764	1.000832
983.280775	1.000858
983.577749	1.000711
983.874686	0.999038
984.171587	0.999403
984.468451	1.000277
984.765279	1.002484
985.062070	1.000773
985.358824	0.999711
985.655543	1.000344
985.952224	0.999588
986.248869	0.999905
986.545478	1.001788
986.842050	1.000183
987.138586	0.999985
987.435086	0.999787
987.731549	1.001792
988.027975	1.001376
988.324366	1.001400
988.620719	1.001428
988.917037	1.001329
989.213318	1.001716
989.509563	0.999119
989.805772	1.000971
990.101944	1.000317
990.398080	1.000536
990.694180	1.001118
990.990244	0.998951
991.286271	0.998718
991.582262	0.999742
991.878217	0.999722
992.174136	1.001071
992.470019	0.999674
992.765865	1.001338
993.061676	1.000561
993.357450	1.001267
993.653188	1.001288
993.948890	1.000129
994.244556	0.999768
994.540186	1.000630
994.835780	1.000537
995.131337	1.000715
995.426859	0.999746
995.722345	1.000388
996.017795	0.999512
996.313208	1.000868
996.608586	0.999905
996.903928	1.001141
997.199234	1.000065
997.494504	0.999921
997.789738	0.999261
998.084936	0.999974
998.380099	0.999157
998.675225	1.000773
998.970316	1.000781
999.265371	1.000418
999.560390	0.999507
999.855373	0.999711
1000.150320	1.000243
1000.445232	1.000575
1000.740108	1.000388
1001.034948	0.999068
1001.329752	1.000355
1001.624521	1.000219
1001.919254	0.999816
1002.213951	1.000879
1002.508613	1.000556
1002.803239	1.000407
1003.097829	1.000160
1003.392384	0.999945
1003.686903	1.001674
1003.981386	0.998982
1004.275834	1.001515
1004.570246	0.999383
1004.864623	1.000196
1005.158964	1.000836
1005.453270	1.000033
1005.747540	1.000235
1006.041775	1.000647
1006.335974	0.999707
1006.630138	1.000779
1006.924266	0.999901
1007.218359	0.999062
1007.512416	1.000284
1007.806438	0.999634
1008.100425	0.999982
1008.394376	1.000999
1008.688292	0.999849
1008.982172	0.999761
1009.276017	1.000723
1009.569827	1.001109
1009.863602	0.999283
1010.157341	1.000478
1010.451045	0.999941
1010.744714	1.000968
1011.038347	1.001184
1011.331945	0.998457
1011.625508	1.000210
1011.919036	0.999877
1012.212528	1.000344
1012.505986	1.000496
1012.799408	0.999672
1013.092795	1.001004
1013.386147	1.000485
1013.679464	1.000665
1013.972745	1.000599
1014.265992	1.000382
1014.559204	0.999700
1014.852380	1.000629
1015.145521	1.000386
1015.438628	0.999865
1015.731699	1.000319
1016.024736	0.999968
1016.317737	1.000991
1016.610703	1.001052
1016.903635	1.000964
1017.196531	0.999266
1017.489393	1.000476
1017.782219	1.000444
1018.075011	0.999952
1018.367768	0.999530
1018.660490	0.999515
1018.953177	0.999515
1019.245829	0.999515
