Dividing Wavelength (nm)	Counts (n)	Blue Motor Position (mm): 0.000000	Red Motor Position (mm): 47.100000	
326.493990	1.001046
326.888308	1.001046
327.282561	1.001046
327.676750	1.000853
328.070874	0.999010
328.464933	0.999503
328.858929	1.001326
329.252859	1.000250
329.646726	0.999600
330.040528	1.000124
330.434265	1.000355
330.827938	1.000362
331.221547	1.000991
331.615091	1.001476
332.008571	0.999736
332.401986	1.000133
332.795338	1.000410
333.188625	0.999057
333.581847	1.000502
333.975006	1.000164
334.368100	0.999641
334.761129	0.999774
335.154095	1.000574
335.546996	0.999398
335.939833	0.999087
336.332606	0.998075
336.725315	1.000326
337.117960	1.001313
337.510540	1.000080
337.903056	1.000996
338.295508	0.999208
338.687896	1.000703
339.080220	1.000540
339.472480	1.000258
339.864676	1.000530
340.256807	1.001058
340.648875	1.001227
341.040879	1.000379
341.432818	1.000393
341.824694	1.000333
342.216506	1.000986
342.608253	0.999858
342.999937	0.999804
343.391557	1.000356
343.783113	0.999563
344.174605	0.999885
344.566033	1.000947
344.957397	1.000463
345.348697	0.999137
345.739934	0.999906
346.131106	0.999739
346.522215	0.999285
346.913260	0.999820
347.304241	1.000082
347.695159	0.999943
348.086012	0.999439
348.476802	1.000453
348.867528	0.999800
349.258191	0.998822
349.648789	0.999770
350.039324	0.999783
350.429796	1.000886
350.820203	1.000838
351.210548	1.000188
351.600828	0.999803
351.991045	1.000320
352.381198	0.999474
352.771288	0.999917
353.161314	0.999573
353.551276	1.000940
353.941175	0.999254
354.331010	1.000143
354.720782	1.000510
355.110490	0.998549
355.500135	1.001182
355.889717	0.999795
356.279235	0.998647
356.668689	1.000275
357.058080	1.001294
357.447408	1.000792
357.836672	1.000290
358.225873	1.000827
358.615010	0.999347
359.004084	1.001283
359.393095	0.999696
359.782043	0.999735
360.170927	1.002420
360.559748	1.001101
360.948505	0.999573
361.337199	1.000226
361.725830	1.000944
362.114398	1.000968
362.502903	1.000939
362.891344	1.002447
363.279722	1.000280
363.668037	1.000733
364.056289	1.000056
364.444478	1.001327
364.832603	0.999850
365.220665	1.000087
365.608665	0.999275
365.996601	1.000430
366.384474	1.000803
366.772284	1.000584
367.160031	0.999045
367.547715	0.998602
367.935336	1.000634
368.322893	1.000135
368.710388	0.999235
369.097820	1.000622
369.485189	1.000953
369.872495	0.999547
370.259738	0.998011
370.646918	1.000884
371.034035	1.001163
371.421090	1.000532
371.808081	0.999543
372.195010	0.999817
372.581875	1.000883
372.968678	1.000738
373.355418	0.999616
373.742096	0.999967
374.128710	1.001907
374.515262	1.000066
374.901751	1.001792
375.288177	1.000119
375.674540	0.999637
376.060841	0.999071
376.447079	1.001406
376.833254	0.999758
377.219367	1.001354
377.605417	1.000710
377.991404	1.000220
378.377329	0.999492
378.763191	1.000211
379.148991	0.999393
379.534727	1.000970
379.920402	1.000677
380.306013	1.001069
380.691563	1.000686
381.077049	1.000975
381.462474	1.000718
381.847835	1.000957
382.233134	1.000246
382.618371	1.001520
383.003545	1.000503
383.388657	1.000364
383.773706	1.001996
384.158693	1.000341
384.543618	1.000324
384.928480	1.000805
385.313280	1.000486
385.698017	1.001671
386.082692	1.001701
386.467305	1.000713
386.851856	0.999657
387.236344	0.999765
387.620770	0.999829
388.005133	1.000596
388.389435	1.000672
388.773674	1.000314
389.157851	1.000589
389.541965	1.000288
389.926018	1.000055
390.310008	1.001938
390.693936	1.000087
391.077802	1.000887
391.461606	1.000606
391.845348	1.000897
392.229027	1.002156
392.612645	1.000964
392.996200	1.002313
393.379694	1.000205
393.763125	1.001706
394.146494	1.001440
394.529801	1.000366
394.913047	1.001366
395.296230	1.000506
395.679351	1.001191
396.062410	1.000707
396.445408	1.001612
396.828343	1.000139
397.211217	1.000581
397.594028	1.000287
397.976778	1.000451
398.359466	1.000409
398.742092	0.999471
399.124656	0.999900
399.507158	1.000416
399.889598	1.000779
400.271977	1.001412
400.654294	1.001319
401.036549	1.001275
401.418742	1.000936
401.800874	1.000068
402.182944	1.000822
402.564952	1.000362
402.946898	1.001499
403.328783	1.000775
403.710606	1.000797
404.092367	1.000379
404.474067	1.001591
404.855705	1.000758
405.237282	1.000317
405.618797	1.000588
406.000250	0.999805
406.381642	1.001746
406.762972	1.001451
407.144240	1.002217
407.525447	1.000577
407.906593	1.000975
408.287677	1.000901
408.668700	1.001895
409.049661	0.999813
409.430560	1.000295
409.811399	0.999907
410.192176	1.000806
410.572891	1.000847
410.953545	1.001251
411.334138	0.999372
411.714669	1.000553
412.095139	1.000323
412.475547	1.001466
412.855894	1.001350
413.236180	1.001164
413.616405	1.001726
413.996568	1.001628
414.376670	1.001029
414.756711	1.000886
415.136691	1.001279
415.516609	1.000870
415.896466	1.000261
416.276262	0.999204
416.655997	1.001373
417.035670	0.999632
417.415283	1.000597
417.794834	1.000603
418.174324	1.000714
418.553753	1.001189
418.933121	1.000299
419.312428	1.000624
419.691674	1.000531
420.070859	1.001851
420.449983	1.000458
420.829045	1.000421
421.208047	1.001654
421.586988	1.002215
421.965867	1.000499
422.344686	1.001283
422.723444	1.001046
423.102141	1.001384
423.480777	1.001133
423.859352	1.001125
424.237866	1.000346
424.616319	1.001144
424.994712	1.001443
425.373044	1.001697
425.751314	1.001222
426.129524	1.000924
426.507673	1.001621
426.885762	1.001952
427.263789	1.001351
427.641756	1.000915
428.019662	1.001792
428.397508	1.000330
428.775292	1.000273
429.153016	1.001049
429.530679	1.001048
429.908282	1.001765
430.285824	1.000533
430.663305	1.001228
431.040726	1.001086
431.418086	1.002322
431.795385	1.001962
432.172624	1.000510
432.549802	1.000754
432.926920	1.001677
433.303977	1.000607
433.680974	1.001345
434.057910	1.000706
434.434786	1.002017
434.811601	1.000470
435.188355	1.000338
435.565050	1.001107
435.941683	1.000276
436.318257	1.001326
436.694770	1.000666
437.071222	1.001500
437.447614	1.001476
437.823946	1.000570
438.200218	1.000927
438.576429	1.001740
438.952580	1.001349
439.328670	1.000813
439.704700	1.001569
440.080670	1.001625
440.456580	1.000918
440.832429	1.000659
441.208218	1.000803
441.583947	1.001739
441.959616	1.000790
442.335224	1.000786
442.710773	1.002050
443.086261	1.000558
443.461689	1.000624
443.837057	1.000465
444.212365	1.001489
444.587612	1.001627
444.962800	1.000702
445.337927	1.000626
445.712995	1.001795
446.088002	1.001898
446.462949	1.000438
446.837837	1.000940
447.212664	1.001070
447.587431	1.001220
447.962139	1.000306
448.336786	1.000691
448.711374	1.001618
449.085901	1.000174
449.460369	1.001126
449.834776	1.000889
450.209124	1.001782
450.583412	1.001715
450.957640	1.000181
451.331808	1.001214
451.705917	1.000923
452.079965	1.000143
452.453954	1.000670
452.827883	1.000265
453.201752	1.001169
453.575562	1.001873
453.949311	1.001025
454.323001	1.001011
454.696632	1.000276
455.070202	1.000921
455.443713	0.999839
455.817164	1.002260
456.190556	1.001342
456.563888	1.000596
456.937160	1.001051
457.310373	1.000690
457.683526	1.000750
458.056619	1.000861
458.429653	1.001097
458.802628	1.000294
459.175542	1.000768
459.548398	1.000969
459.921194	1.001098
460.293930	1.001903
460.666607	1.000360
461.039224	1.000329
461.411782	1.001226
461.784280	1.000398
462.156719	1.000938
462.529099	1.001242
462.901419	1.001710
463.273680	1.000507
463.645882	1.001199
464.018024	1.000467
464.390106	1.000715
464.762130	1.001623
465.134094	1.000617
465.505999	1.001227
465.877845	1.001509
466.249631	1.001683
466.621358	1.001411
466.993026	1.001354
467.364634	1.000876
467.736184	1.001494
468.107674	1.000909
468.479105	1.000689
468.850477	1.001050
469.221790	1.001036
469.593043	1.001140
469.964238	1.001691
470.335373	1.000554
470.706449	1.001056
471.077467	1.001315
471.448425	1.001536
471.819324	1.001842
472.190164	1.000966
472.560945	1.001547
472.931667	1.000849
473.302330	1.000297
473.672934	1.001356
474.043479	1.001857
474.413965	1.001359
474.784393	1.001120
475.154761	1.000999
475.525070	1.000729
475.895321	1.001368
476.265513	1.001160
476.635645	1.001248
477.005719	1.001470
477.375734	1.000600
477.745691	1.000496
478.115588	1.000890
478.485427	1.001203
478.855207	1.000816
479.224928	1.001158
479.594591	1.001183
479.964194	1.001023
480.333739	1.001193
480.703226	1.000646
481.072653	1.001911
481.442022	1.001563
481.811333	1.000496
482.180584	1.001664
482.549777	1.000542
482.918912	1.000860
483.287988	1.001597
483.657005	1.000709
484.025964	1.001703
484.394864	1.001435
484.763706	1.001526
485.132489	1.001455
485.501213	1.000895
485.869879	1.001018
486.238487	1.000988
486.607036	1.001623
486.975527	1.000799
487.343959	1.000617
487.712333	1.001448
488.080648	1.001089
488.448905	1.001276
488.817104	1.001174
489.185244	1.001653
489.553326	1.001144
489.921350	1.001062
490.289315	1.001423
490.657222	1.001277
491.025070	1.002098
491.392861	1.001559
491.760593	1.001622
492.128267	1.000817
492.495883	1.000522
492.863440	1.001615
493.230939	1.001391
493.598380	1.001028
493.965763	1.000961
494.333088	1.001514
494.700354	1.000328
495.067563	1.000804
495.434713	1.000753
495.801805	1.001344
496.168839	1.001027
496.535815	1.000570
496.902733	1.000497
497.269593	1.000725
497.636395	1.001041
498.003139	1.001224
498.369825	1.001792
498.736453	1.001022
499.103023	1.000273
499.469535	1.000750
499.835989	1.001528
500.202385	1.001144
500.568723	1.000679
500.935003	1.000851
501.301226	1.000733
501.667390	1.001072
502.033497	1.001519
502.399546	1.001695
502.765537	1.000700
503.131470	1.001145
503.497345	1.000519
503.863163	1.001705
504.228923	1.001594
504.594625	1.001522
504.960269	1.001280
505.325856	1.000655
505.691385	1.001109
506.056856	1.000837
506.422270	1.000744
506.787625	1.001181
507.152924	1.001401
507.518164	1.000956
507.883347	1.001059
508.248472	1.000956
508.613540	1.000761
508.978550	1.001674
509.343503	1.000724
509.708398	1.001961
510.073236	1.000868
510.438016	1.001535
510.802738	1.001543
511.167403	1.001638
511.532010	1.001230
511.896561	1.001032
512.261053	1.001392
512.625488	1.000895
512.989866	1.001169
513.354186	1.001113
513.718449	1.001145
514.082655	1.000986
514.446803	1.000876
514.810894	1.000943
515.174927	1.001474
515.538904	1.000855
515.902822	1.001463
516.266684	1.001247
516.630488	1.001856
516.994235	1.000821
517.357925	1.001038
517.721558	1.001357
518.085133	1.000403
518.448651	1.001719
518.812112	1.001065
519.175516	1.001098
519.538863	1.000805
519.902152	1.000572
520.265385	1.000344
520.628560	1.001435
520.991678	1.001602
521.354739	1.001166
521.717743	1.001372
522.080690	1.001671
522.443580	1.001124
522.806413	1.001249
523.169189	1.000067
523.531908	1.000735
523.894569	1.001214
524.257174	1.001198
524.619722	1.001689
524.982213	1.001269
525.344647	1.001319
525.707025	1.001031
526.069345	1.000394
526.431608	1.000869
526.793815	1.001728
527.155964	1.000716
527.518057	1.001295
527.880093	1.001782
528.242072	1.001315
528.603995	1.000804
528.965860	1.002000
529.327669	1.001338
529.689421	1.001037
530.051117	1.001124
530.412755	1.001581
530.774337	1.001852
531.135862	1.001503
531.497331	1.000842
531.858743	1.000905
532.220098	1.001256
532.581396	1.001475
532.942638	1.001570
533.303824	1.001194
533.664953	1.001788
534.026025	1.001391
534.387040	1.001444
534.747999	1.001184
535.108902	1.001589
535.469748	1.000985
535.830537	1.000735
536.191270	1.001377
536.551947	1.000730
536.912567	1.001535
537.273131	1.002015
537.633638	1.000172
537.994089	1.001269
538.354483	1.001073
538.714821	1.000582
539.075103	1.000941
539.435328	1.001376
539.795497	1.001518
540.155609	1.001130
540.515665	1.001407
540.875665	1.001131
541.235609	1.000917
541.595496	1.001055
541.955328	1.000501
542.315102	1.001541
542.674821	1.001011
543.034483	0.999998
543.394090	1.000122
543.753640	1.000859
544.113134	1.000822
544.472571	1.001115
544.831953	1.000834
545.191278	1.001000
545.550548	1.002106
545.909761	1.000608
546.268918	1.001442
546.628019	1.001424
546.987064	1.001145
547.346053	1.001259
547.704986	1.001352
548.063863	1.000876
548.422684	1.000816
548.781449	1.001200
549.140158	1.000730
549.498811	1.001415
549.857408	1.000843
550.215949	1.001953
550.574434	1.000905
550.932864	1.001145
551.291237	1.001719
551.649555	1.001180
552.007817	1.001201
552.366022	1.000650
552.724173	1.001418
553.082267	1.001504
553.440305	1.000828
553.798288	1.000545
554.156215	1.000511
554.514086	1.001318
554.871902	1.001744
555.229661	1.001164
555.587365	1.000521
555.945014	1.001777
556.302606	1.001376
556.660143	1.000594
557.017625	1.001130
557.375050	1.001362
557.732421	1.000803
558.089735	1.000564
558.446994	1.001842
558.804197	1.001692
559.161345	1.001480
559.518437	1.001929
559.875474	1.001032
560.232455	1.000369
560.589381	1.001098
560.946251	1.000065
561.303065	1.001068
561.659825	1.001349
562.016528	1.000917
562.373177	1.001096
562.729770	1.001193
563.086307	1.000921
563.442789	1.001070
563.799216	1.000914
564.155587	1.000471
564.511904	1.000246
564.868164	1.000326
565.224370	1.001084
565.580520	1.001421
565.936615	1.000905
566.292654	1.000491
566.648638	1.001310
567.004567	1.000656
567.360441	1.002076
567.716260	1.001161
568.072023	1.000865
568.427732	1.000926
568.783385	1.001193
569.138982	1.001390
569.494525	1.000474
569.850013	1.001313
570.205445	1.000540
570.560823	1.001385
570.916145	1.000484
571.271412	1.000752
571.626625	1.000747
571.981782	1.000800
572.336884	1.001753
572.691931	1.001631
573.046923	1.000540
573.401860	1.001230
573.756743	1.000959
574.111570	1.001469
574.466342	1.001384
574.821059	1.000683
575.175722	1.000821
575.530330	1.001312
575.884882	1.000536
576.239380	1.002110
576.593823	1.001105
576.948211	1.000615
577.302544	1.000059
577.656823	1.001022
578.011047	1.000370
578.365216	1.000622
578.719330	1.000771
579.073389	1.001237
579.427394	1.000956
579.781344	1.001446
580.135239	1.001088
580.489080	1.000120
580.842866	1.000942
581.196597	1.000057
581.550273	0.999932
581.903895	1.001210
582.257463	1.001141
582.610975	1.000378
582.964434	1.000974
583.317837	1.001503
583.671186	1.001102
584.024481	1.000690
584.377721	1.000465
584.730906	1.000671
585.084037	1.001026
585.437113	1.000736
585.790135	1.001319
586.143103	1.000025
586.496016	1.001315
586.848874	1.000720
587.201679	1.000544
587.554428	1.001215
587.907124	1.000630
588.259765	1.000880
588.612352	1.001129
588.964884	1.000933
589.317362	1.001134
589.669786	1.001419
590.022155	1.001365
590.374470	1.001116
590.726731	1.000780
591.078937	1.000046
591.431090	1.000155
591.783188	1.000542
592.135232	1.000878
592.487222	1.000407
592.839157	1.000180
593.191038	1.001551
593.542866	1.000477
593.894639	1.001190
594.246358	1.000313
594.598022	1.000602
594.949633	1.001314
595.301190	1.000179
595.652692	1.001188
596.004141	1.000787
596.355535	1.000781
596.706876	1.000392
597.058162	1.001273
597.409395	1.001534
597.760573	1.000715
598.111698	1.000395
598.462768	1.000236
598.813785	1.000388
599.164748	1.000665
599.515657	1.000551
599.866511	1.000372
600.217312	1.000047
600.568060	1.000781
600.918753	1.000780
601.269392	1.000984
601.619978	1.000440
601.970510	1.000573
602.320988	1.001785
602.671412	1.000557
603.021783	1.000270
603.372100	1.001675
603.722363	1.000895
604.072572	1.000454
604.422728	1.000506
604.772830	1.000686
605.122878	1.000652
605.472872	1.001423
605.822813	1.000564
606.172701	1.000341
606.522534	1.000641
606.872314	1.000184
607.222041	0.999933
607.571714	1.001499
607.921333	1.000451
608.270899	1.000003
608.620411	1.000075
608.969870	1.000994
609.319276	0.999721
609.668627	1.001110
610.017926	0.999738
610.367171	1.000716
610.716362	0.999629
611.065500	1.000045
611.414585	1.001330
611.763616	1.001317
612.112594	0.999803
612.461518	1.000251
612.810389	1.000885
613.159207	1.000379
613.507971	1.000616
613.856682	1.000828
614.205340	1.000996
614.553945	1.000075
614.902496	1.000551
615.250994	1.000680
615.599439	1.000833
615.947830	1.000551
616.296169	1.000337
616.644454	0.999997
616.992686	1.000650
617.340864	1.000189
617.688990	1.000271
618.037063	1.000094
618.385082	1.000245
618.733048	1.000704
619.080961	1.001294
619.428821	1.000884
619.776628	1.000353
620.124382	0.999975
620.472083	0.998981
620.819731	1.001012
621.167326	1.000662
621.514868	1.000535
621.862357	1.000169
622.209793	1.001147
622.557176	0.999463
622.904506	1.000735
623.251783	0.999712
623.599007	1.000650
623.946179	1.000127
624.293297	1.000466
624.640363	0.999511
624.987376	0.999313
625.334336	1.000342
625.681243	1.000478
626.028097	1.000207
626.374899	1.001042
626.721647	1.000467
627.068343	1.000573
627.414987	1.000342
627.761577	1.000776
628.108115	1.000028
628.454600	1.000519
628.801032	1.000100
629.147412	1.000990
629.493739	1.000009
629.840014	0.999262
630.186236	1.000430
630.532405	1.000230
630.878521	0.999952
631.224585	1.000373
631.570597	1.000565
631.916556	1.000738
632.262462	1.000818
632.608316	1.000311
632.954117	0.999736
633.299866	0.999824
633.645562	1.000182
633.991206	1.000301
634.336797	1.001166
634.682336	1.000310
635.027823	1.000584
635.373257	1.000221
635.718639	1.000469
636.063968	1.000032
636.409245	1.000189
636.754470	1.000781
637.099642	1.001159
637.444762	1.001379
637.789829	1.000488
638.134845	0.999815
638.479808	1.000345
638.824719	1.000498
639.169577	0.999853
639.514383	0.999625
639.859137	0.999739
640.203839	0.999985
640.548489	0.999809
640.893086	0.999514
641.237632	1.000399
641.582125	0.999191
641.926566	0.999553
642.270955	1.000438
642.615292	1.000218
642.959576	1.000035
643.303809	1.000693
643.647990	1.000492
643.992118	1.000162
644.336195	1.000242
644.680219	1.000191
645.024192	1.000130
645.368112	1.000100
645.711981	0.999612
646.055797	1.000270
646.399562	1.000061
646.743274	0.999223
647.086935	0.999930
647.430544	0.999577
647.774101	0.999784
648.117606	0.999931
648.461059	0.998799
648.804460	0.999330
649.147810	0.999617
649.491108	1.000516
649.834354	0.999776
650.177548	1.000699
650.520690	1.000332
650.863781	0.999827
651.206820	0.999573
651.549807	1.000562
651.892742	0.999605
652.235626	1.000095
652.578458	1.000317
652.921238	0.999774
653.263967	1.000924
653.606644	1.000369
653.949269	0.999399
654.291843	0.999572
654.634365	0.999715
654.976836	1.000612
655.319255	0.999822
655.661622	1.000484
656.003938	0.999787
656.346203	1.000309
656.688416	1.000567
657.030577	1.000155
657.372687	0.999529
657.714746	0.999701
658.056753	1.000328
658.398708	1.000726
658.740612	1.000604
659.082465	0.999666
659.424266	1.000370
659.766016	0.998272
660.107715	0.999038
660.449362	1.000000
660.790958	1.000024
661.132503	0.998617
661.473996	0.999897
661.815438	0.999548
662.156829	0.999386
662.498168	0.999813
662.839456	0.999837
663.180693	1.000750
663.521879	0.999475
663.863013	0.999504
664.204097	1.000289
664.545129	1.000010
664.886110	0.999623
665.227040	0.999961
665.567918	0.999374
665.908746	0.999680
666.249522	0.999913
666.590248	0.999819
666.930922	1.000550
667.271545	1.000796
667.612118	1.000238
667.952639	0.999913
668.293109	1.000025
668.633528	0.999431
668.973896	0.999722
669.314213	0.999316
669.654480	0.998501
669.994695	0.999800
670.334859	0.999623
670.674973	0.999317
671.015035	0.999721
671.355047	0.999545
671.695008	1.000074
672.034918	0.999164
672.374777	0.999289
672.714585	0.999760
673.054342	0.999891
673.394049	0.999821
673.733705	0.999014
674.073310	0.999066
674.412864	0.999531
674.752368	0.999432
675.091820	0.999975
675.431223	0.999401
675.770574	0.999662
676.109875	0.999103
676.449125	0.998736
676.788324	0.998595
677.127473	1.000581
677.466571	0.999655
677.805619	0.999862
678.144616	1.000319
678.483562	0.999432
678.822458	0.999397
679.161303	1.000156
679.500098	0.999729
679.838842	1.000304
680.177535	0.999928
680.516179	0.999428
680.854771	0.999718
681.193314	0.999907
681.531805	0.999237
681.870247	0.999492
682.208638	0.998810
682.546978	0.998843
682.885268	0.999240
683.223508	0.999181
683.561697	0.998642
683.899836	0.999194
684.237925	0.999737
684.575963	0.999149
684.913951	0.999262
685.251889	0.999967
685.589776	0.999555
685.927614	0.999316
686.265401	0.999150
686.603137	0.998631
686.940824	0.998871
687.278460	0.998589
687.616046	0.999728
687.953582	0.998504
688.291068	0.998843
688.628504	0.999744
688.965889	0.998245
689.303224	0.998448
689.640510	0.998951
689.977745	0.998641
690.314930	0.999502
690.652065	0.999004
690.989150	0.999780
691.326185	0.999243
691.663170	0.999634
692.000105	0.998890
692.336990	0.999704
692.673825	0.998608
693.010610	0.999327
693.347345	0.998549
693.684030	0.998885
694.020665	0.998904
694.357251	0.998631
694.693786	0.999335
695.030272	0.999981
695.366707	0.999102
695.703093	0.998556
696.039429	0.998355
696.375716	0.998436
696.711952	0.998471
697.048139	0.999068
697.384276	0.998091
697.720363	0.997818
698.056400	0.997882
698.392388	0.998613
698.728326	0.999025
699.064214	1.000639
699.400053	1.000036
699.735842	1.000184
700.071581	0.998950
700.407270	0.998648
700.742910	0.999364
701.078501	0.999252
701.414042	0.999112
701.749533	0.997818
702.084974	0.998375
702.420366	0.997929
702.755709	0.998550
703.091002	0.999045
703.426246	0.999055
703.761440	0.998667
704.096584	0.998227
704.431679	0.998890
704.766725	0.997729
705.101721	0.998561
705.436668	0.999017
705.771565	0.998993
706.106413	0.998772
706.441212	0.999109
706.775961	0.998741
707.110661	0.999464
707.445311	0.998751
707.779913	0.998724
708.114465	0.998588
708.448967	0.998770
708.783421	0.997688
709.117825	0.998875
709.452180	0.997898
709.786485	0.997370
710.120742	0.997403
710.454949	0.998107
710.789107	0.998060
711.123216	0.997931
711.457275	0.998605
711.791286	0.996911
712.125247	0.997856
712.459159	0.996810
712.793023	0.997996
713.126837	0.998839
713.460602	0.997604
713.794318	0.998241
714.127985	0.997033
714.461602	0.998351
714.795171	0.997830
715.128691	0.997840
715.462162	0.997905
715.795584	0.996939
716.128957	0.998481
716.462281	0.997101
716.795556	0.997552
717.128782	0.997257
717.461960	0.996667
717.795088	0.996672
718.128167	0.997753
718.461198	0.997587
718.794180	0.997457
719.127113	0.998098
719.459997	0.998702
719.792833	0.998606
720.125619	0.998012
720.458357	0.997522
720.791046	0.998299
721.123686	0.998627
721.456278	0.997746
721.788821	0.998384
722.121315	0.997661
722.453761	0.998452
722.786158	0.998578
723.118506	0.997747
723.450805	0.998066
723.783056	0.997162
724.115259	0.996820
724.447412	0.997055
724.779518	0.997019
725.111574	0.996914
725.443582	0.996805
725.775542	0.996163
726.107453	0.997711
726.439315	0.996956
726.771129	0.996071
727.102895	0.996432
727.434612	0.996856
727.766281	0.996224
728.097901	0.996380
728.429473	0.998128
728.760996	0.995898
729.092471	0.995942
729.423897	0.996268
729.755276	0.997377
730.086606	0.995704
730.417887	0.996042
730.749120	0.996495
731.080305	0.995607
731.411442	0.995382
731.742530	0.997048
732.073570	0.996365
732.404562	0.995919
732.735506	0.996434
733.066401	0.996609
733.397249	0.996205
733.728048	0.996180
734.058798	0.996974
734.389501	0.996682
734.720156	0.995804
735.050762	0.997048
735.381320	0.996508
735.711831	0.997407
736.042293	0.997836
736.372707	0.996112
736.703073	0.995962
737.033391	0.997426
737.363661	0.996681
737.693883	0.996780
738.024056	0.996449
738.354182	0.997335
738.684260	0.996573
739.014290	0.996225
739.344272	0.995673
739.674207	0.996313
740.004093	0.996283
740.333931	0.996942
740.663722	0.996125
740.993464	0.995811
741.323159	0.995309
741.652806	0.995556
741.982405	0.996628
742.311956	0.995124
742.641460	0.996296
742.970915	0.995415
743.300323	0.996317
743.629683	0.996561
743.958996	0.996920
744.288260	0.995524
744.617477	0.996490
744.946647	0.996020
745.275768	0.995727
745.604842	0.995239
745.933869	0.996601
746.262847	0.994904
746.591778	0.994984
746.920662	0.995608
747.249498	0.996811
747.578286	0.995709
747.907027	0.995833
748.235720	0.996847
748.564365	0.995167
748.892963	0.996363
749.221514	0.994334
749.550017	0.995672
749.878473	0.993858
750.206881	0.995404
750.535242	0.996443
750.863555	0.996587
751.191821	0.995739
751.520039	0.995942
751.848210	0.995523
752.176334	0.995000
752.504411	0.995756
752.832440	0.996142
753.160421	0.995236
753.488356	0.996448
753.816243	0.996448
754.144082	0.995354
754.471875	0.996369
754.799620	0.995523
755.127318	0.995895
755.454969	0.995666
755.782572	0.994894
756.110129	0.996268
756.437638	0.995682
756.765100	0.995231
757.092515	0.996226
757.419882	0.995250
757.747203	0.995149
758.074477	0.995101
758.401703	0.995250
758.728882	0.994964
759.056014	0.994341
759.383099	0.995420
759.710138	0.994623
760.037129	0.995684
760.364073	0.994071
760.690970	0.994697
761.017820	0.996398
761.344623	0.994705
761.671379	0.994365
761.998088	0.994392
762.324751	0.994309
762.651366	0.993806
762.977935	0.992049
763.304456	0.990392
763.630931	0.988916
763.957359	0.990729
764.283740	0.992417
764.610074	0.992141
764.936362	0.991971
765.262602	0.991602
765.588796	0.992787
765.914943	0.995022
766.241044	0.993358
766.567097	0.995202
766.893104	0.994674
767.219064	0.993930
767.544978	0.994312
767.870845	0.995603
768.196665	0.994910
768.522438	0.994476
768.848165	0.995472
769.173846	0.995412
769.499479	0.996473
769.825066	0.995573
770.150607	0.996627
770.476101	0.994799
770.801548	0.994772
771.126949	0.995656
771.452303	0.994501
771.777611	0.995163
772.102872	0.996101
772.428087	0.995100
772.753256	0.994880
773.078378	0.995915
773.403453	0.995611
773.728482	0.996929
774.053465	0.995227
774.378401	0.996234
774.703291	0.996592
775.028135	0.995418
775.352932	0.996797
775.677683	0.996311
776.002388	0.994693
776.327046	0.994428
776.651658	0.996219
776.976224	0.995792
777.300743	0.996444
777.625216	0.995858
777.949643	0.996221
778.274024	0.995685
778.598359	0.996799
778.922647	0.998006
779.246889	0.996396
779.571086	0.997576
779.895236	0.996555
780.219339	0.995451
780.543397	0.996577
780.867409	0.995589
781.191374	0.995769
781.515294	0.996135
781.839167	0.996632
782.162995	0.997066
782.486776	0.995913
782.810511	0.995957
783.134201	0.996284
783.457844	0.995763
783.781441	0.996048
784.104993	0.996854
784.428498	0.995790
784.751958	0.996586
785.075372	0.996942
785.398739	0.996362
785.722061	0.996434
786.045337	0.995410
786.368568	0.996476
786.691752	0.995507
787.014891	0.994496
787.337983	0.995056
787.661030	0.995451
787.984031	0.995103
788.306987	0.994369
788.629897	0.995683
788.952760	0.994123
789.275579	0.995216
789.598351	0.994539
789.921078	0.995021
790.243759	0.994927
790.566395	0.995272
790.888984	0.996016
791.211529	0.996001
791.534027	0.995748
791.856480	0.996448
792.178888	0.996379
792.501249	0.995849
792.823566	0.996427
793.145836	0.995191
793.468062	0.997208
793.790241	0.995358
794.112375	0.995962
794.434464	0.995317
794.756507	0.995420
795.078505	0.997205
795.400457	0.997281
795.722364	0.996414
796.044226	0.995484
796.366042	0.995551
796.687812	0.994836
797.009538	0.996232
797.331218	0.995133
797.652852	0.996683
797.974442	0.995761
798.295986	0.994447
798.617484	0.995213
798.938938	0.996440
799.260346	0.995333
799.581709	0.995348
799.903026	0.995786
800.224299	0.995409
800.545526	0.996977
800.866708	0.995586
801.187845	0.996832
801.508936	0.997043
801.829983	0.997369
802.150984	0.995518
802.471940	0.996537
802.792851	0.996469
803.113717	0.995637
803.434538	0.996623
803.755314	0.996121
804.076045	0.997235
804.396731	0.996568
804.717372	0.996494
805.037967	0.996453
805.358518	0.996185
805.679024	0.996687
805.999485	0.996187
806.319901	0.997800
806.640272	0.996812
806.960598	0.996318
807.280879	0.996808
807.601115	0.997796
807.921306	0.996588
808.241453	0.995218
808.561554	0.995773
808.881611	0.996229
809.201623	0.996808
809.521590	0.996010
809.841513	0.996607
810.161390	0.995643
810.481223	0.996553
810.801011	0.996489
811.120755	0.996522
811.440453	0.996691
811.760107	0.995236
812.079716	0.996015
812.399281	0.996804
812.718801	0.996546
813.038276	0.996329
813.357707	0.995614
813.677093	0.995335
813.996434	0.996727
814.315731	0.996930
814.634983	0.996584
814.954191	0.995133
815.273354	0.997654
815.592473	0.995320
815.911547	0.996531
816.230577	0.996039
816.549562	0.995375
816.868502	0.996801
817.187399	0.996043
817.506250	0.994885
817.825058	0.994417
818.143821	0.995170
818.462539	0.995407
818.781213	0.993894
819.099843	0.992687
819.418429	0.993265
819.736970	0.992685
820.055466	0.991836
820.373919	0.990844
820.692327	0.988330
821.010691	0.987722
821.329011	0.986633
821.647286	0.982587
821.965517	0.980781
822.283704	0.981271
822.601847	0.979774
822.919945	0.977169
823.237999	0.975927
823.556010	0.977990
823.873976	0.979929
824.191897	0.980955
824.509775	0.981769
824.827609	0.985199
825.145398	0.984769
825.463144	0.985236
825.780845	0.986106
826.098502	0.985532
826.416116	0.983402
826.733685	0.982827
827.051210	0.980597
827.368692	0.980454
827.686129	0.982093
828.003522	0.983579
828.320872	0.984667
828.638177	0.986818
828.955439	0.990476
829.272656	0.991344
829.589830	0.992400
829.906960	0.992721
830.224046	0.992234
830.541088	0.992474
830.858086	0.993094
831.175041	0.994553
831.491952	0.993752
831.808819	0.993349
832.125642	0.994749
832.442421	0.991915
832.759157	0.992126
833.075849	0.990015
833.392497	0.988111
833.709101	0.984771
834.025662	0.984867
834.342179	0.986024
834.658653	0.987879
834.975083	0.989435
835.291469	0.989464
835.607811	0.990814
835.924110	0.990962
836.240366	0.993349
836.556578	0.995026
836.872746	0.996240
837.188871	0.994351
837.504952	0.995769
837.820990	0.996348
838.136984	0.994864
838.452935	0.995828
838.768842	0.996182
839.084706	0.995495
839.400526	0.994488
839.716303	0.994373
840.032037	0.993027
840.347727	0.991394
840.663373	0.993248
840.978977	0.993072
841.294537	0.994070
841.610054	0.995896
841.925527	0.996530
842.240957	0.996327
842.556344	0.995340
842.871687	0.996532
843.186987	0.997948
843.502244	0.997027
843.817458	0.997070
844.132629	0.997095
844.447756	0.998793
844.762840	0.997783
845.077881	0.997611
845.392879	0.997974
845.707833	0.998125
846.022745	0.997491
846.337613	0.998207
846.652438	0.999473
846.967221	0.997769
847.281960	0.997264
847.596656	0.999549
847.911309	0.997558
848.225919	0.997673
848.540485	0.998635
848.855009	0.998769
849.169490	0.998012
849.483928	0.998719
849.798323	0.999460
850.112675	0.997689
850.426984	0.998117
850.741251	0.998409
851.055474	0.998825
851.369654	0.997398
851.683792	0.998799
851.997887	0.998843
852.311938	0.999104
852.625947	0.998335
852.939914	0.998179
853.253837	0.998464
853.567718	0.999117
853.881555	0.998658
854.195350	0.997167
854.509103	0.999138
854.822812	0.997672
855.136479	0.998778
855.450103	0.998265
855.763685	0.997358
856.077224	0.997836
856.390720	0.997579
856.704173	0.999290
857.017584	0.998282
857.330953	0.997660
857.644278	0.998551
857.957561	0.998341
858.270802	0.997512
858.584000	0.996913
858.897155	0.996659
859.210268	0.997937
859.523339	0.996971
859.836367	0.997729
860.149352	0.998371
860.462295	0.996631
860.775195	0.998147
861.088054	0.997478
861.400869	0.997080
861.713642	0.998050
862.026373	0.997510
862.339062	0.998177
862.651708	0.997089
862.964312	0.997025
863.276873	0.997100
863.589392	0.998126
863.901869	0.998299
864.214303	0.998368
864.526696	0.997974
864.839045	0.998305
865.151353	0.997470
865.463619	0.998036
865.775842	0.997595
866.088023	0.996985
866.400162	0.998134
866.712258	0.998143
867.024313	0.997624
867.336325	0.997572
867.648296	0.997246
867.960224	0.998209
868.272110	0.997211
868.583954	0.997601
868.895755	0.997027
869.207515	0.996660
869.519233	0.996498
869.830909	0.996938
870.142542	0.997593
870.454134	0.996177
870.765684	0.997927
871.077191	0.996601
871.388657	0.996479
871.700081	0.996450
872.011463	0.996667
872.322803	0.997483
872.634101	0.996312
872.945357	0.996319
873.256571	0.998093
873.567744	0.996793
873.878874	0.996237
874.189963	0.996113
874.501010	0.996521
874.812015	0.996271
875.122979	0.996536
875.433900	0.996319
875.744780	0.996043
876.055618	0.995865
876.366415	0.995881
876.677169	0.996843
876.987882	0.997328
877.298554	0.995984
877.609183	0.994530
877.919771	0.995050
878.230317	0.995545
878.540822	0.993746
878.851285	0.993621
879.161707	0.992226
879.472087	0.992847
879.782425	0.990296
880.092722	0.988592
880.402977	0.986035
880.713191	0.984260
881.023363	0.982262
881.333494	0.982167
881.643583	0.980459
881.953631	0.979161
882.263637	0.979110
882.573602	0.979676
882.883526	0.980558
883.193408	0.981762
883.503248	0.981607
883.813048	0.983772
884.122806	0.984475
884.432522	0.986143
884.742197	0.989263
885.051831	0.988788
885.361424	0.989003
885.670975	0.990419
885.980485	0.991821
886.289954	0.993065
886.599382	0.993878
886.908768	0.994646
887.218113	0.994615
887.527417	0.994149
887.836680	0.994833
888.145901	0.994358
888.455082	0.995454
888.764221	0.995867
889.073319	0.994589
889.382376	0.995366
889.691392	0.995420
890.000366	0.994957
890.309300	0.996148
890.618193	0.995477
890.927044	0.995970
891.235855	0.996340
891.544625	0.994761
891.853353	0.995950
892.162041	0.996055
892.470687	0.995546
892.779293	0.993982
893.087858	0.994529
893.396381	0.994624
893.704864	0.993932
894.013306	0.991424
894.321707	0.989944
894.630068	0.988300
894.938387	0.988348
895.246665	0.986157
895.554903	0.987283
895.863100	0.988686
896.171256	0.989797
896.479371	0.990732
896.787446	0.992581
897.095480	0.993281
897.403473	0.993764
897.711425	0.993108
898.019336	0.994686
898.327207	0.992554
898.635038	0.996209
898.942827	0.994136
899.250576	0.995598
899.558284	0.996364
899.865952	0.995578
900.173579	0.996194
900.481165	0.994552
900.788711	0.997378
901.096216	0.996524
901.403681	0.996237
901.711105	0.998358
902.018489	0.997363
902.325832	0.995729
902.633135	0.997099
902.940397	0.995378
903.247619	0.995992
903.554800	0.992383
903.861941	0.990175
904.169041	0.989642
904.476101	0.987624
904.783121	0.985297
905.090100	0.988034
905.397039	0.987520
905.703938	0.989988
906.010796	0.990476
906.317614	0.992501
906.624391	0.993224
906.931129	0.994476
907.237826	0.994654
907.544483	0.996812
907.851099	0.995950
908.157675	0.996886
908.464211	0.997910
908.770707	0.997396
909.077163	0.998069
909.383578	0.997836
909.689954	0.996976
909.996289	0.997342
910.302584	0.997894
910.608839	0.998989
910.915054	0.998019
911.221229	0.998542
911.527363	0.998266
911.833458	0.996655
912.139513	0.997441
912.445527	0.996690
912.751502	0.997778
913.057436	0.996730
913.363331	0.997166
913.669186	0.996499
913.975000	0.995667
914.280775	0.995804
914.586510	0.995010
914.892205	0.994362
915.197859	0.993393
915.503475	0.990540
915.809050	0.989661
916.114585	0.988090
916.420081	0.988504
916.725536	0.986308
917.030952	0.988825
917.336328	0.987948
917.641665	0.989874
917.946961	0.990934
918.252218	0.992558
918.557435	0.993158
918.862612	0.994291
919.167750	0.994804
919.472848	0.994102
919.777906	0.995253
920.082925	0.996939
920.387904	0.996987
920.692843	0.996579
920.997743	0.995605
921.302603	0.996424
921.607423	0.997068
921.912204	0.997251
922.216946	0.996341
922.521647	0.997602
922.826310	0.997476
923.130932	0.998088
923.435516	0.996656
923.740059	0.998032
924.044564	0.998002
924.349028	0.997641
924.653454	0.998424
924.957840	1.000887
925.262186	0.997904
925.566493	0.998834
925.870761	0.998360
926.174989	1.000237
926.479178	0.999860
926.783328	0.999538
927.087438	0.999245
927.391509	0.997705
927.695541	1.000132
927.999533	0.999342
928.303486	0.999858
928.607400	1.000603
928.911275	0.997955
929.215110	0.998784
929.518906	1.000537
929.822663	0.999244
930.126381	1.000068
930.430060	0.999373
930.733699	1.000159
931.037299	0.998604
931.340861	1.000043
931.644383	0.998988
931.947866	0.998470
932.251309	0.999524
932.554714	0.999474
932.858080	1.000802
933.161407	1.000269
933.464694	1.000856
933.767943	0.999083
934.071153	0.999514
934.374323	0.999872
934.677455	0.999093
934.980548	1.000324
935.283602	0.999256
935.586617	0.999580
935.889593	0.998716
936.192530	0.998320
936.495428	0.999703
936.798287	0.999912
937.101108	1.000601
937.403890	0.998863
937.706632	0.999270
938.009336	0.999877
938.312002	0.998699
938.614628	0.999443
938.917216	0.999794
939.219765	0.998303
939.522275	1.000424
939.824747	0.998468
940.127179	0.998649
940.429573	0.998307
940.731929	0.999624
941.034246	0.998729
941.336524	0.998530
941.638763	0.998771
941.940964	0.997852
942.243126	0.998298
942.545250	0.999201
942.847335	0.999728
943.149381	0.999510
943.451389	0.998209
943.753359	0.999037
944.055290	1.001362
944.357182	0.999462
944.659036	0.997815
944.960851	0.998023
945.262628	0.998657
945.564367	0.999405
945.866067	0.999001
946.167729	0.999389
946.469352	0.999940
946.770937	0.998667
947.072484	1.000529
947.373992	0.999337
947.675462	1.001040
947.976893	0.998547
948.278286	0.999116
948.579641	1.000828
948.880958	0.997564
949.182236	0.999445
949.483476	0.998881
949.784678	0.999259
950.085841	1.000564
950.386967	0.999433
950.688054	0.998298
950.989103	0.999519
951.290114	0.998256
951.591087	0.997720
951.892021	1.000279
952.192917	0.999355
952.493776	0.998894
952.794596	0.999043
953.095378	0.998567
953.396122	0.998530
953.696828	0.996809
953.997496	0.999849
954.298126	0.999798
954.598718	0.998955
954.899272	0.999884
955.199788	0.998482
955.500266	1.000710
955.800706	0.999942
956.101108	1.000514
956.401472	0.999883
956.701798	0.999967
957.002087	0.998111
957.302337	0.999217
957.602550	1.000730
957.902724	0.999214
958.202861	1.000223
958.502960	1.000588
958.803022	0.998766
959.103045	1.001098
959.403031	0.999967
959.702979	0.999525
960.002889	0.999738
960.302762	0.998614
960.602596	0.999737
960.902393	0.998921
961.202153	0.999555
961.501875	1.000829
961.801559	0.999165
962.101205	0.999413
962.400814	1.000294
962.700385	0.998766
962.999918	0.999847
963.299414	0.998114
963.598873	0.998167
963.898293	0.998959
964.197677	0.999014
964.497022	0.999996
964.796331	1.000323
965.095601	1.000929
965.394835	1.000202
965.694030	0.998934
965.993189	1.000526
966.292309	0.999471
966.591393	1.000333
966.890439	1.001506
967.189447	0.999787
967.488419	1.000308
967.787353	0.999101
968.086249	0.999727
968.385108	1.000126
968.683930	1.000910
968.982714	1.000637
969.281462	1.000614
969.580172	0.999166
969.878844	1.000161
970.177480	1.001042
970.476078	0.999944
970.774639	0.999826
971.073162	1.001639
971.371649	0.999619
971.670098	1.000242
971.968510	1.001031
972.266885	0.999665
972.565223	0.999840
972.863524	0.999131
973.161788	1.000983
973.460014	1.000920
973.758204	1.000054
974.056356	0.999713
974.354471	0.998434
974.652550	1.000126
974.950591	0.999095
975.248595	0.999829
975.546563	1.000828
975.844493	1.000876
976.142386	1.000620
976.440243	1.000032
976.738062	1.000206
977.035845	1.000318
977.333590	0.999866
977.631299	1.000366
977.928971	0.999500
978.226606	0.999676
978.524204	0.998744
978.821765	1.000785
979.119290	0.999632
979.416777	1.000801
979.714228	0.999210
980.011642	0.998605
980.309020	1.000587
980.606360	0.999739
980.903664	1.001350
981.200931	0.998862
981.498162	0.997790
981.795356	0.999277
982.092513	0.999013
982.389633	0.999638
982.686717	0.998314
982.983764	0.999255
983.280775	0.998889
983.577749	0.998636
983.874686	0.999550
984.171587	0.999208
984.468451	0.999976
984.765279	1.000985
985.062070	0.999267
985.358824	0.998798
985.655543	0.998807
985.952224	0.999677
986.248869	1.000453
986.545478	0.999884
986.842050	1.001153
987.138586	0.998275
987.435086	0.999759
987.731549	1.001421
988.027975	1.001280
988.324366	0.999872
988.620719	0.999567
988.917037	0.998144
989.213318	1.000561
989.509563	1.001412
989.805772	1.000133
990.101944	1.000067
990.398080	0.999588
990.694180	0.999711
990.990244	0.999689
991.286271	1.000950
991.582262	1.000767
991.878217	0.999726
992.174136	0.999862
992.470019	1.000420
992.765865	0.999581
993.061676	0.999333
993.357450	0.999853
993.653188	0.998753
993.948890	0.999692
994.244556	1.000170
994.540186	0.999367
994.835780	0.999410
995.131337	1.000053
995.426859	0.999357
995.722345	1.001358
996.017795	1.001042
996.313208	0.999198
996.608586	0.998883
996.903928	0.999923
997.199234	0.999919
997.494504	0.999626
997.789738	0.999608
998.084936	0.999094
998.380099	1.000289
998.675225	0.999702
998.970316	1.000587
999.265371	0.999940
999.560390	1.000031
999.855373	1.000365
1000.150320	0.999925
1000.445232	1.000584
1000.740108	0.999676
1001.034948	0.999657
1001.329752	0.999068
1001.624521	1.000851
1001.919254	1.000907
1002.213951	0.999176
1002.508613	0.999913
1002.803239	0.999721
1003.097829	1.000479
1003.392384	1.001427
1003.686903	0.999852
1003.981386	1.000667
1004.275834	1.000500
1004.570246	0.999410
1004.864623	1.000183
1005.158964	1.000773
1005.453270	1.001503
1005.747540	0.998979
1006.041775	0.999683
1006.335974	1.001891
1006.630138	1.001343
1006.924266	1.001477
1007.218359	1.001808
1007.512416	1.000306
1007.806438	1.000515
1008.100425	1.001162
1008.394376	1.000471
1008.688292	1.001038
1008.982172	1.002813
1009.276017	1.001301
1009.569827	1.000964
1009.863602	0.999980
1010.157341	1.000631
1010.451045	1.000377
1010.744714	1.000096
1011.038347	0.999514
1011.331945	1.000520
1011.625508	0.999375
1011.919036	0.999526
1012.212528	1.000961
1012.505986	0.999569
1012.799408	1.000943
1013.092795	1.000528
1013.386147	0.999941
1013.679464	1.000153
1013.972745	0.999199
1014.265992	0.999130
1014.559204	1.000646
1014.852380	1.000594
1015.145521	0.999838
1015.438628	0.999783
1015.731699	1.000492
1016.024736	1.000133
1016.317737	0.999379
1016.610703	1.001443
1016.903635	1.000285
1017.196531	1.000042
1017.489393	1.000765
1017.782219	0.999553
1018.075011	1.000128
1018.367768	0.999359
1018.660490	1.000247
1018.953177	1.000247
1019.245829	1.000247
