Dividing Wavelength (nm)	Counts (n)	Blue Motor Position (mm): 0.000000	Red Motor Position (mm): 46.800000	
326.493990	1.000995
326.888308	1.000995
327.282561	1.000995
327.676750	1.001340
328.070874	0.998389
328.464933	1.000323
328.858929	0.999542
329.252859	0.999649
329.646726	0.999238
330.040528	0.999999
330.434265	1.000603
330.827938	1.001295
331.221547	1.001459
331.615091	1.000321
332.008571	1.000991
332.401986	1.000323
332.795338	1.000683
333.188625	0.999246
333.581847	1.000728
333.975006	0.999969
334.368100	1.000612
334.761129	0.999932
335.154095	1.001142
335.546996	0.999916
335.939833	0.999869
336.332606	1.000222
336.725315	1.001668
337.117960	1.002310
337.510540	1.000486
337.903056	1.000729
338.295508	0.999005
338.687896	1.001167
339.080220	0.999913
339.472480	1.000657
339.864676	1.000234
340.256807	0.999869
340.648875	1.001812
341.040879	1.000504
341.432818	0.999975
341.824694	1.000438
342.216506	1.001041
342.608253	0.999802
342.999937	0.999717
343.391557	1.000266
343.783113	1.000129
344.174605	1.000546
344.566033	1.001473
344.957397	1.000191
345.348697	1.000429
345.739934	1.001002
346.131106	1.000822
346.522215	1.000244
346.913260	1.000589
347.304241	1.000827
347.695159	1.000202
348.086012	0.999657
348.476802	0.999927
348.867528	0.999550
349.258191	0.999685
349.648789	1.001201
350.039324	1.000665
350.429796	1.001488
350.820203	1.000105
351.210548	0.999988
351.600828	1.000047
351.991045	0.999903
352.381198	0.999623
352.771288	0.999963
353.161314	0.999932
353.551276	1.001170
353.941175	1.000224
354.331010	1.000908
354.720782	1.001541
355.110490	1.000037
355.500135	1.000547
355.889717	1.000517
356.279235	1.000598
356.668689	0.999950
357.058080	1.001201
357.447408	1.001332
357.836672	1.000731
358.225873	1.000786
358.615010	1.000047
359.004084	1.001694
359.393095	1.000574
359.782043	1.000173
360.170927	1.001683
360.559748	1.001016
360.948505	1.000002
361.337199	1.000091
361.725830	1.001036
362.114398	1.000050
362.502903	1.000893
362.891344	1.001382
363.279722	1.000294
363.668037	1.000484
364.056289	0.999598
364.444478	1.002556
364.832603	1.001105
365.220665	0.999299
365.608665	1.000215
365.996601	0.999572
366.384474	1.001695
366.772284	1.000969
367.160031	0.999276
367.547715	0.999398
367.935336	1.001710
368.322893	1.000145
368.710388	0.999848
369.097820	1.000769
369.485189	1.000252
369.872495	0.999387
370.259738	0.998237
370.646918	1.001352
371.034035	1.001956
371.421090	0.999877
371.808081	1.000472
372.195010	1.000784
372.581875	1.001501
372.968678	1.000755
373.355418	1.000128
373.742096	1.000676
374.128710	1.001170
374.515262	0.999534
374.901751	1.001629
375.288177	1.000975
375.674540	1.000819
376.060841	0.999527
376.447079	1.001387
376.833254	1.000375
377.219367	1.000550
377.605417	1.000807
377.991404	1.000981
378.377329	0.999451
378.763191	1.000122
379.148991	1.001139
379.534727	1.000943
379.920402	1.001575
380.306013	1.001350
380.691563	1.001977
381.077049	0.999462
381.462474	1.001138
381.847835	1.001312
382.233134	1.000708
382.618371	1.000355
383.003545	1.000791
383.388657	1.000057
383.773706	1.001590
384.158693	1.000786
384.543618	1.000872
384.928480	1.002724
385.313280	1.000488
385.698017	1.001332
386.082692	1.001317
386.467305	1.001595
386.851856	1.000798
387.236344	1.000861
387.620770	0.999751
388.005133	1.002287
388.389435	1.002266
388.773674	1.000464
389.157851	1.001945
389.541965	1.000777
389.926018	1.001539
390.310008	1.002198
390.693936	1.000754
391.077802	1.001557
391.461606	1.000966
391.845348	1.001763
392.229027	1.001810
392.612645	1.002198
392.996200	1.002240
393.379694	1.001128
393.763125	1.001474
394.146494	1.001822
394.529801	0.999960
394.913047	1.001700
395.296230	1.001504
395.679351	1.001049
396.062410	1.000184
396.445408	1.001312
396.828343	1.000866
397.211217	1.001387
397.594028	1.001705
397.976778	1.001191
398.359466	1.000225
398.742092	1.001062
399.124656	1.000471
399.507158	1.000541
399.889598	1.001468
400.271977	1.000462
400.654294	1.001383
401.036549	1.000817
401.418742	1.001514
401.800874	1.000456
402.182944	1.000666
402.564952	1.000312
402.946898	1.001260
403.328783	1.001211
403.710606	1.001551
404.092367	1.000813
404.474067	1.002024
404.855705	1.000960
405.237282	1.001285
405.618797	1.001098
406.000250	0.999577
406.381642	1.001771
406.762972	1.001254
407.144240	1.001838
407.525447	1.001135
407.906593	1.001028
408.287677	1.001151
408.668700	1.001766
409.049661	1.000014
409.430560	1.001083
409.811399	1.000422
410.192176	1.000549
410.572891	1.001232
410.953545	1.001113
411.334138	1.000297
411.714669	1.001503
412.095139	0.999738
412.475547	1.002014
412.855894	1.001771
413.236180	1.001416
413.616405	1.001272
413.996568	1.001058
414.376670	1.001133
414.756711	1.001266
415.136691	1.000982
415.516609	1.000532
415.896466	1.000769
416.276262	0.999686
416.655997	1.001609
417.035670	1.000248
417.415283	1.000672
417.794834	1.000477
418.174324	1.001563
418.553753	1.001733
418.933121	1.000417
419.312428	1.000457
419.691674	1.000508
420.070859	1.000793
420.449983	1.000852
420.829045	1.002305
421.208047	1.001785
421.586988	1.001638
421.965867	1.001033
422.344686	1.001710
422.723444	1.001252
423.102141	1.001211
423.480777	1.001598
423.859352	1.000879
424.237866	1.000334
424.616319	1.000730
424.994712	1.001091
425.373044	1.002092
425.751314	1.000612
426.129524	1.000853
426.507673	1.001258
426.885762	1.001479
427.263789	1.001070
427.641756	1.001333
428.019662	1.001498
428.397508	1.001016
428.775292	1.000174
429.153016	1.000499
429.530679	1.001326
429.908282	1.001569
430.285824	1.000086
430.663305	1.000125
431.040726	1.000637
431.418086	1.002372
431.795385	1.001782
432.172624	1.000591
432.549802	1.001340
432.926920	1.001027
433.303977	1.000505
433.680974	1.001671
434.057910	1.001084
434.434786	1.000847
434.811601	1.001145
435.188355	1.001554
435.565050	1.001325
435.941683	1.001169
436.318257	1.001249
436.694770	1.000188
437.071222	1.001218
437.447614	1.001139
437.823946	1.000714
438.200218	1.001873
438.576429	1.000994
438.952580	1.001121
439.328670	1.001001
439.704700	1.001676
440.080670	1.001577
440.456580	1.001094
440.832429	1.001237
441.208218	1.001143
441.583947	1.001219
441.959616	1.001975
442.335224	1.000599
442.710773	1.001912
443.086261	1.000500
443.461689	1.001793
443.837057	1.000491
444.212365	1.001302
444.587612	1.001651
444.962800	1.000454
445.337927	1.000819
445.712995	1.001243
446.088002	1.001776
446.462949	1.001613
446.837837	1.001217
447.212664	1.001118
447.587431	1.001158
447.962139	1.001294
448.336786	1.001027
448.711374	1.000895
449.085901	1.000912
449.460369	1.001492
449.834776	1.000614
450.209124	1.001502
450.583412	1.000802
450.957640	1.001219
451.331808	1.000667
451.705917	1.001287
452.079965	1.000692
452.453954	1.001311
452.827883	1.000809
453.201752	1.001042
453.575562	1.001368
453.949311	1.000871
454.323001	1.000722
454.696632	1.000771
455.070202	1.001256
455.443713	1.000398
455.817164	1.001495
456.190556	1.001081
456.563888	1.000632
456.937160	1.001670
457.310373	1.000792
457.683526	1.000553
458.056619	1.001314
458.429653	1.002134
458.802628	1.000393
459.175542	1.001081
459.548398	1.001530
459.921194	1.000106
460.293930	1.001342
460.666607	1.000272
461.039224	0.999349
461.411782	1.000522
461.784280	1.000268
462.156719	1.001278
462.529099	1.001359
462.901419	1.001101
463.273680	1.001201
463.645882	1.000914
464.018024	1.001541
464.390106	1.000605
464.762130	1.001429
465.134094	1.001214
465.505999	1.001103
465.877845	1.000944
466.249631	1.001258
466.621358	1.000585
466.993026	1.001307
467.364634	1.001299
467.736184	1.001356
468.107674	1.001676
468.479105	1.000794
468.850477	1.001341
469.221790	1.001007
469.593043	1.001863
469.964238	1.002155
470.335373	1.000865
470.706449	1.001066
471.077467	1.001706
471.448425	1.001279
471.819324	1.001844
472.190164	1.000941
472.560945	1.000722
472.931667	1.001192
473.302330	1.001243
473.672934	1.001727
474.043479	1.000914
474.413965	1.000266
474.784393	1.001342
475.154761	1.000792
475.525070	1.000294
475.895321	1.001440
476.265513	1.001079
476.635645	1.000522
477.005719	1.000796
477.375734	1.000750
477.745691	1.001258
478.115588	1.001006
478.485427	1.001495
478.855207	1.000816
479.224928	1.001076
479.594591	1.001315
479.964194	1.001265
480.333739	1.000774
480.703226	1.001089
481.072653	1.001916
481.442022	1.001594
481.811333	1.000811
482.180584	1.001260
482.549777	1.001052
482.918912	1.001507
483.287988	1.000990
483.657005	1.001136
484.025964	1.001680
484.394864	1.001475
484.763706	1.001487
485.132489	1.001831
485.501213	1.000894
485.869879	1.001261
486.238487	1.001101
486.607036	1.001950
486.975527	1.000702
487.343959	1.000829
487.712333	1.001114
488.080648	1.001137
488.448905	1.000717
488.817104	1.001636
489.185244	1.001530
489.553326	1.001657
489.921350	1.001066
490.289315	1.001033
490.657222	1.000901
491.025070	1.000660
491.392861	1.001809
491.760593	1.001526
492.128267	1.001144
492.495883	1.000550
492.863440	1.001397
493.230939	1.001582
493.598380	1.001370
493.965763	1.000972
494.333088	1.001464
494.700354	1.000862
495.067563	1.000827
495.434713	1.001322
495.801805	1.001539
496.168839	1.000781
496.535815	1.000846
496.902733	1.001104
497.269593	1.000847
497.636395	1.000910
498.003139	1.000765
498.369825	1.001776
498.736453	1.000614
499.103023	0.999931
499.469535	1.000630
499.835989	1.000347
500.202385	1.000856
500.568723	1.001721
500.935003	1.001790
501.301226	1.000706
501.667390	1.001349
502.033497	1.000969
502.399546	1.001754
502.765537	1.001087
503.131470	1.001360
503.497345	1.001399
503.863163	1.002032
504.228923	1.001380
504.594625	1.001315
504.960269	1.001326
505.325856	1.001069
505.691385	1.001276
506.056856	1.001361
506.422270	1.001213
506.787625	1.001122
507.152924	1.001036
507.518164	1.001264
507.883347	1.000890
508.248472	1.000946
508.613540	1.001260
508.978550	1.001355
509.343503	1.000337
509.708398	1.001102
510.073236	1.000961
510.438016	1.001415
510.802738	1.000656
511.167403	1.001690
511.532010	1.000675
511.896561	1.001589
512.261053	1.001967
512.625488	1.000813
512.989866	1.001321
513.354186	1.001539
513.718449	1.001068
514.082655	1.000816
514.446803	1.001451
514.810894	1.001219
515.174927	1.001037
515.538904	1.001040
515.902822	1.001276
516.266684	1.001432
516.630488	1.001910
516.994235	1.000599
517.357925	1.001225
517.721558	1.001449
518.085133	1.000410
518.448651	1.001443
518.812112	1.000873
519.175516	1.000723
519.538863	1.001476
519.902152	1.000747
520.265385	1.000377
520.628560	1.001133
520.991678	1.001037
521.354739	1.000905
521.717743	1.001237
522.080690	1.001447
522.443580	1.000867
522.806413	1.001303
523.169189	1.000566
523.531908	1.000662
523.894569	1.001301
524.257174	1.001155
524.619722	1.001305
524.982213	1.001257
525.344647	1.001348
525.707025	1.000756
526.069345	1.000524
526.431608	1.001120
526.793815	1.001212
527.155964	1.000770
527.518057	1.001710
527.880093	1.000817
528.242072	1.001329
528.603995	1.000458
528.965860	1.001725
529.327669	1.000921
529.689421	1.000521
530.051117	1.001743
530.412755	1.001026
530.774337	1.001669
531.135862	1.001019
531.497331	1.001049
531.858743	1.001427
532.220098	1.001454
532.581396	1.001286
532.942638	1.001718
533.303824	1.001664
533.664953	1.001383
534.026025	1.000227
534.387040	1.000997
534.747999	1.000855
535.108902	1.001748
535.469748	1.001287
535.830537	1.000881
536.191270	1.001240
536.551947	1.001072
536.912567	1.000831
537.273131	1.001471
537.633638	1.000405
537.994089	1.001013
538.354483	1.001418
538.714821	1.001670
539.075103	1.000967
539.435328	1.000943
539.795497	1.000953
540.155609	1.000808
540.515665	1.001000
540.875665	1.001023
541.235609	1.001450
541.595496	1.000686
541.955328	0.999889
542.315102	1.000818
542.674821	1.001521
543.034483	1.000421
543.394090	1.000349
543.753640	1.001541
544.113134	1.001100
544.472571	1.000988
544.831953	1.001272
545.191278	1.000682
545.550548	1.001612
545.909761	1.000512
546.268918	1.000745
546.628019	1.001216
546.987064	1.000527
547.346053	1.001319
547.704986	1.002027
548.063863	1.001183
548.422684	1.000886
548.781449	1.001385
549.140158	1.000913
549.498811	1.001215
549.857408	1.001106
550.215949	1.001344
550.574434	1.001221
550.932864	1.000386
551.291237	1.001357
551.649555	1.001226
552.007817	1.000889
552.366022	1.000312
552.724173	1.001528
553.082267	1.001510
553.440305	1.000693
553.798288	1.001148
554.156215	1.000931
554.514086	1.001028
554.871902	1.001052
555.229661	1.001165
555.587365	1.001071
555.945014	1.001615
556.302606	1.000654
556.660143	1.001010
557.017625	1.000584
557.375050	1.000729
557.732421	1.001339
558.089735	1.001245
558.446994	1.001346
558.804197	1.001304
559.161345	1.001848
559.518437	1.001829
559.875474	1.000798
560.232455	1.000896
560.589381	1.001534
560.946251	1.000582
561.303065	1.000582
561.659825	1.001104
562.016528	1.000935
562.373177	1.001444
562.729770	1.000897
563.086307	1.001358
563.442789	1.001181
563.799216	1.000700
564.155587	1.000824
564.511904	1.000368
564.868164	1.000641
565.224370	1.000729
565.580520	1.000991
565.936615	1.001198
566.292654	1.000624
566.648638	1.000653
567.004567	1.000888
567.360441	1.001174
567.716260	1.001068
568.072023	1.001058
568.427732	1.000533
568.783385	1.001065
569.138982	1.001511
569.494525	1.000653
569.850013	1.001353
570.205445	1.001084
570.560823	1.001774
570.916145	1.000417
571.271412	1.000977
571.626625	1.001136
571.981782	1.000747
572.336884	1.001324
572.691931	1.000719
573.046923	1.000484
573.401860	1.000884
573.756743	1.000738
574.111570	1.001465
574.466342	1.001526
574.821059	1.001258
575.175722	1.001442
575.530330	1.001011
575.884882	1.001086
576.239380	1.001401
576.593823	1.000960
576.948211	1.000931
577.302544	1.000845
577.656823	1.000630
578.011047	1.001065
578.365216	1.001000
578.719330	1.000216
579.073389	1.001715
579.427394	1.000599
579.781344	1.001561
580.135239	1.000997
580.489080	1.001175
580.842866	1.000948
581.196597	1.000828
581.550273	1.000483
581.903895	1.001097
582.257463	1.001768
582.610975	1.000480
582.964434	1.001097
583.317837	1.001176
583.671186	1.001007
584.024481	1.000877
584.377721	1.000879
584.730906	1.000748
585.084037	1.001118
585.437113	1.000759
585.790135	1.000259
586.143103	1.000456
586.496016	1.002134
586.848874	1.000760
587.201679	1.000306
587.554428	1.001487
587.907124	1.000631
588.259765	1.001324
588.612352	1.001575
588.964884	1.001198
589.317362	1.001511
589.669786	1.000890
590.022155	1.001941
590.374470	1.000850
590.726731	1.000963
591.078937	1.000921
591.431090	1.000469
591.783188	1.000988
592.135232	1.001198
592.487222	1.001612
592.839157	1.000775
593.191038	1.001260
593.542866	0.999848
593.894639	1.001540
594.246358	1.000501
594.598022	1.001142
594.949633	1.001580
595.301190	1.000521
595.652692	1.001006
596.004141	1.001228
596.355535	1.000945
596.706876	1.001398
597.058162	1.000682
597.409395	1.001486
597.760573	1.000920
598.111698	1.001044
598.462768	1.000671
598.813785	1.000318
599.164748	1.001122
599.515657	1.000206
599.866511	1.001154
600.217312	1.000519
600.568060	1.000500
600.918753	1.000715
601.269392	1.000538
601.619978	1.000914
601.970510	1.001072
602.320988	1.001655
602.671412	1.000718
603.021783	1.001066
603.372100	1.001761
603.722363	1.000778
604.072572	1.000744
604.422728	1.001124
604.772830	1.000488
605.122878	1.000924
605.472872	1.001210
605.822813	1.000448
606.172701	1.000958
606.522534	1.002319
606.872314	1.000415
607.222041	1.001016
607.571714	1.001463
607.921333	1.000014
608.270899	1.001763
608.620411	1.001151
608.969870	1.001413
609.319276	1.000667
609.668627	1.001097
610.017926	1.000018
610.367171	1.001237
610.716362	1.000179
611.065500	1.000474
611.414585	1.000940
611.763616	1.001685
612.112594	1.001002
612.461518	1.001189
612.810389	1.000911
613.159207	1.001000
613.507971	1.000589
613.856682	1.001171
614.205340	1.001313
614.553945	1.000581
614.902496	1.001051
615.250994	1.001036
615.599439	1.001628
615.947830	1.000780
616.296169	1.000819
616.644454	1.000741
616.992686	1.001102
617.340864	1.001562
617.688990	1.001056
618.037063	1.001272
618.385082	1.000974
618.733048	1.000803
619.080961	1.001384
619.428821	1.000452
619.776628	1.000827
620.124382	1.000861
620.472083	1.000301
620.819731	1.001073
621.167326	1.000901
621.514868	1.000829
621.862357	1.001231
622.209793	1.000384
622.557176	1.000095
622.904506	1.000461
623.251783	1.000638
623.599007	1.001207
623.946179	1.001618
624.293297	1.001146
624.640363	1.000855
624.987376	1.000345
625.334336	1.000807
625.681243	1.000883
626.028097	1.001265
626.374899	1.001017
626.721647	1.001093
627.068343	1.001125
627.414987	1.000090
627.761577	1.000420
628.108115	1.001145
628.454600	1.000630
628.801032	1.000702
629.147412	1.000591
629.493739	1.000564
629.840014	1.000469
630.186236	1.001153
630.532405	1.000301
630.878521	1.000926
631.224585	1.000817
631.570597	1.000975
631.916556	1.000485
632.262462	1.001700
632.608316	1.000905
632.954117	0.999825
633.299866	1.000940
633.645562	1.000922
633.991206	1.001429
634.336797	1.001925
634.682336	1.001072
635.027823	1.000280
635.373257	1.000922
635.718639	1.000700
636.063968	1.000278
636.409245	1.000743
636.754470	1.001733
637.099642	1.001317
637.444762	1.001306
637.789829	1.000543
638.134845	1.000326
638.479808	1.000765
638.824719	1.000703
639.169577	1.000703
639.514383	1.001428
639.859137	1.000492
640.203839	1.000911
640.548489	1.001070
640.893086	1.000764
641.237632	1.000414
641.582125	1.000218
641.926566	0.999419
642.270955	1.000521
642.615292	1.001080
642.959576	1.001313
643.303809	1.000635
643.647990	1.000224
643.992118	1.000673
644.336195	1.001315
644.680219	1.000244
645.024192	0.999820
645.368112	1.000013
645.711981	1.001417
646.055797	1.000435
646.399562	0.999903
646.743274	0.998984
647.086935	1.000383
647.430544	0.999839
647.774101	1.000519
648.117606	1.000648
648.461059	1.000320
648.804460	0.999857
649.147810	0.999445
649.491108	1.000640
649.834354	0.999807
650.177548	1.000746
650.520690	1.000499
650.863781	1.000954
651.206820	1.000989
651.549807	1.000849
651.892742	1.001120
652.235626	1.000794
652.578458	1.000416
652.921238	1.000555
653.263967	1.000624
653.606644	1.000709
653.949269	1.000061
654.291843	0.999399
654.634365	1.000580
654.976836	1.000197
655.319255	1.000632
655.661622	1.001503
656.003938	1.000886
656.346203	1.000806
656.688416	1.000364
657.030577	1.000626
657.372687	0.999776
657.714746	0.999816
658.056753	1.000559
658.398708	1.001081
658.740612	1.000446
659.082465	1.000667
659.424266	1.000661
659.766016	0.999721
660.107715	0.999312
660.449362	1.000269
660.790958	1.000302
661.132503	0.999449
661.473996	1.000827
661.815438	1.000075
662.156829	1.000046
662.498168	1.000690
662.839456	0.999212
663.180693	1.000459
663.521879	1.000105
663.863013	1.001007
664.204097	1.000875
664.545129	1.000516
664.886110	1.000297
665.227040	0.999972
665.567918	0.999422
665.908746	0.999991
666.249522	0.999595
666.590248	0.999388
666.930922	1.000388
667.271545	0.999845
667.612118	0.999900
667.952639	1.000415
668.293109	1.000045
668.633528	1.000309
668.973896	1.000322
669.314213	0.999743
669.654480	1.000155
669.994695	1.000811
670.334859	1.000313
670.674973	0.999553
671.015035	0.999710
671.355047	1.000057
671.695008	1.000032
672.034918	0.999292
672.374777	0.999874
672.714585	1.000691
673.054342	1.000316
673.394049	0.999356
673.733705	0.998892
674.073310	1.000288
674.412864	1.000392
674.752368	0.999682
675.091820	1.000881
675.431223	1.000638
675.770574	1.000000
676.109875	0.999393
676.449125	0.999770
676.788324	0.999404
677.127473	1.000260
677.466571	0.999217
677.805619	0.999554
678.144616	0.999812
678.483562	1.000228
678.822458	1.000065
679.161303	1.000502
679.500098	1.000423
679.838842	1.001181
680.177535	1.000369
680.516179	1.000570
680.854771	1.000114
681.193314	1.000360
681.531805	0.999803
681.870247	0.999425
682.208638	0.999820
682.546978	0.998735
682.885268	0.999083
683.223508	0.999694
683.561697	0.998292
683.899836	0.999019
684.237925	0.999150
684.575963	0.999297
684.913951	0.999578
685.251889	0.999420
685.589776	0.999374
685.927614	0.998960
686.265401	0.999207
686.603137	0.999365
686.940824	0.998231
687.278460	0.999214
687.616046	0.998807
687.953582	0.998191
688.291068	0.998942
688.628504	0.999621
688.965889	0.998058
689.303224	0.998270
689.640510	0.998682
689.977745	0.998984
690.314930	1.000053
690.652065	0.998647
690.989150	0.999578
691.326185	0.998852
691.663170	0.999296
692.000105	0.998591
692.336990	0.998434
692.673825	0.997926
693.010610	0.999266
693.347345	0.998251
693.684030	0.998930
694.020665	0.999283
694.357251	0.998856
694.693786	0.999991
695.030272	1.000142
695.366707	0.997996
695.703093	0.998392
696.039429	0.998656
696.375716	0.998293
696.711952	0.999051
697.048139	0.998119
697.384276	0.998025
697.720363	0.997724
698.056400	0.997681
698.392388	0.997233
698.728326	0.999254
699.064214	0.999539
699.400053	0.999013
699.735842	0.998729
700.071581	0.998710
700.407270	0.997643
700.742910	0.999009
701.078501	0.999056
701.414042	0.998539
701.749533	0.997929
702.084974	0.997848
702.420366	0.997227
702.755709	0.998008
703.091002	0.998671
703.426246	0.998550
703.761440	0.998384
704.096584	0.998324
704.431679	0.998758
704.766725	0.998005
705.101721	0.997500
705.436668	0.997680
705.771565	0.998066
706.106413	0.998358
706.441212	0.998263
706.775961	0.997261
707.110661	0.998270
707.445311	0.997806
707.779913	0.998082
708.114465	0.997328
708.448967	0.997964
708.783421	0.996623
709.117825	0.996292
709.452180	0.998225
709.786485	0.996511
710.120742	0.996544
710.454949	0.996428
710.789107	0.996737
711.123216	0.996735
711.457275	0.996469
711.791286	0.994943
712.125247	0.995135
712.459159	0.995415
712.793023	0.995597
713.126837	0.995975
713.460602	0.995307
713.794318	0.996639
714.127985	0.995677
714.461602	0.995819
714.795171	0.995468
715.128691	0.996141
715.462162	0.996109
715.795584	0.995065
716.128957	0.996485
716.462281	0.996248
716.795556	0.995271
717.128782	0.995236
717.461960	0.995733
717.795088	0.995848
718.128167	0.996349
718.461198	0.996689
718.794180	0.996084
719.127113	0.995858
719.459997	0.997015
719.792833	0.996401
720.125619	0.995653
720.458357	0.996611
720.791046	0.996440
721.123686	0.995576
721.456278	0.996398
721.788821	0.995650
722.121315	0.995979
722.453761	0.996295
722.786158	0.995454
723.118506	0.996112
723.450805	0.996036
723.783056	0.995674
724.115259	0.995463
724.447412	0.995124
724.779518	0.996303
725.111574	0.995052
725.443582	0.995761
725.775542	0.994690
726.107453	0.995057
726.439315	0.994815
726.771129	0.994637
727.102895	0.995168
727.434612	0.994007
727.766281	0.993500
728.097901	0.993078
728.429473	0.995452
728.760996	0.993441
729.092471	0.993249
729.423897	0.994402
729.755276	0.994072
730.086606	0.992851
730.417887	0.993389
730.749120	0.994027
731.080305	0.992335
731.411442	0.993212
731.742530	0.994444
732.073570	0.993766
732.404562	0.991973
732.735506	0.993135
733.066401	0.992959
733.397249	0.993252
733.728048	0.993639
734.058798	0.994634
734.389501	0.993550
734.720156	0.993534
735.050762	0.994281
735.381320	0.994171
735.711831	0.995813
736.042293	0.994288
736.372707	0.993337
736.703073	0.994256
737.033391	0.994190
737.363661	0.993443
737.693883	0.993356
738.024056	0.993502
738.354182	0.993123
738.684260	0.993129
739.014290	0.992294
739.344272	0.992765
739.674207	0.991850
740.004093	0.992127
740.333931	0.992532
740.663722	0.991796
740.993464	0.992352
741.323159	0.992348
741.652806	0.991933
741.982405	0.991413
742.311956	0.990510
742.641460	0.992369
742.970915	0.992374
743.300323	0.992818
743.629683	0.992735
743.958996	0.992392
744.288260	0.992526
744.617477	0.992784
744.946647	0.992851
745.275768	0.992611
745.604842	0.992700
745.933869	0.993582
746.262847	0.991984
746.591778	0.991282
746.920662	0.992441
747.249498	0.993532
747.578286	0.992204
747.907027	0.991279
748.235720	0.993107
748.564365	0.991817
748.892963	0.991211
749.221514	0.990593
749.550017	0.991100
749.878473	0.990927
750.206881	0.991771
750.535242	0.992299
750.863555	0.992730
751.191821	0.992710
751.520039	0.991370
751.848210	0.992512
752.176334	0.990860
752.504411	0.991824
752.832440	0.992437
753.160421	0.991956
753.488356	0.992461
753.816243	0.992275
754.144082	0.991319
754.471875	0.992492
754.799620	0.991655
755.127318	0.992055
755.454969	0.989795
755.782572	0.991318
756.110129	0.991481
756.437638	0.992019
756.765100	0.991973
757.092515	0.990538
757.419882	0.991458
757.747203	0.990192
758.074477	0.990877
758.401703	0.991083
758.728882	0.989945
759.056014	0.991251
759.383099	0.990363
759.710138	0.990954
760.037129	0.991831
760.364073	0.990564
760.690970	0.990386
761.017820	0.991227
761.344623	0.990425
761.671379	0.990683
761.998088	0.988561
762.324751	0.989370
762.651366	0.989131
762.977935	0.984947
763.304456	0.982077
763.630931	0.980831
763.957359	0.982441
764.283740	0.985114
764.610074	0.984838
764.936362	0.985063
765.262602	0.986034
765.588796	0.987933
765.914943	0.990123
766.241044	0.989472
766.567097	0.989921
766.893104	0.989576
767.219064	0.990580
767.544978	0.991431
767.870845	0.993212
768.196665	0.991783
768.522438	0.992100
768.848165	0.991972
769.173846	0.992051
769.499479	0.992623
769.825066	0.991440
770.150607	0.993433
770.476101	0.990507
770.801548	0.991864
771.126949	0.992767
771.452303	0.990929
771.777611	0.992274
772.102872	0.991752
772.428087	0.990672
772.753256	0.991845
773.078378	0.991799
773.403453	0.992856
773.728482	0.994864
774.053465	0.992123
774.378401	0.991868
774.703291	0.993289
775.028135	0.993319
775.352932	0.993928
775.677683	0.993703
776.002388	0.992255
776.327046	0.991893
776.651658	0.993129
776.976224	0.992933
777.300743	0.994120
777.625216	0.992638
777.949643	0.993213
778.274024	0.994251
778.598359	0.994272
778.922647	0.994290
779.246889	0.993185
779.571086	0.993805
779.895236	0.993870
780.219339	0.993261
780.543397	0.993098
780.867409	0.992970
781.191374	0.992506
781.515294	0.993794
781.839167	0.992831
782.162995	0.995032
782.486776	0.992458
782.810511	0.991737
783.134201	0.992739
783.457844	0.991968
783.781441	0.991846
784.104993	0.993359
784.428498	0.993141
784.751958	0.993462
785.075372	0.994507
785.398739	0.993501
785.722061	0.993759
786.045337	0.991898
786.368568	0.993583
786.691752	0.993239
787.014891	0.992845
787.337983	0.992282
787.661030	0.992559
787.984031	0.990875
788.306987	0.989755
788.629897	0.990221
788.952760	0.990444
789.275579	0.989778
789.598351	0.990657
789.921078	0.991611
790.243759	0.991386
790.566395	0.992272
790.888984	0.991575
791.211529	0.991896
791.534027	0.993181
791.856480	0.992654
792.178888	0.993569
792.501249	0.993583
792.823566	0.992836
793.145836	0.993706
793.468062	0.993955
793.790241	0.993246
794.112375	0.992426
794.434464	0.991812
794.756507	0.992384
795.078505	0.993819
795.400457	0.994031
795.722364	0.991733
796.044226	0.991345
796.366042	0.990007
796.687812	0.991320
797.009538	0.992533
797.331218	0.990939
797.652852	0.991885
797.974442	0.991506
798.295986	0.991054
798.617484	0.991459
798.938938	0.991873
799.260346	0.991871
799.581709	0.992955
799.903026	0.992086
800.224299	0.992120
800.545526	0.993615
800.866708	0.993702
801.187845	0.994185
801.508936	0.994293
801.829983	0.993927
802.150984	0.992419
802.471940	0.993519
802.792851	0.993432
803.113717	0.993676
803.434538	0.993247
803.755314	0.993051
804.076045	0.994224
804.396731	0.992906
804.717372	0.993957
805.037967	0.993279
805.358518	0.993562
805.679024	0.994019
805.999485	0.992724
806.319901	0.994154
806.640272	0.993060
806.960598	0.992433
807.280879	0.993517
807.601115	0.993654
807.921306	0.993703
808.241453	0.992336
808.561554	0.992321
808.881611	0.992082
809.201623	0.992776
809.521590	0.993810
809.841513	0.993397
810.161390	0.993253
810.481223	0.993667
810.801011	0.993647
811.120755	0.993711
811.440453	0.993270
811.760107	0.992384
812.079716	0.992988
812.399281	0.992962
812.718801	0.993175
813.038276	0.994078
813.357707	0.993234
813.677093	0.992378
813.996434	0.994968
814.315731	0.994699
814.634983	0.992995
814.954191	0.991971
815.273354	0.994053
815.592473	0.992001
815.911547	0.992976
816.230577	0.992274
816.549562	0.992350
816.868502	0.993431
817.187399	0.992255
817.506250	0.991533
817.825058	0.990843
818.143821	0.991434
818.462539	0.990443
818.781213	0.989995
819.099843	0.988731
819.418429	0.988577
819.736970	0.988199
820.055466	0.984741
820.373919	0.983495
820.692327	0.979253
821.010691	0.977809
821.329011	0.975218
821.647286	0.968476
821.965517	0.962953
822.283704	0.963435
822.601847	0.962102
822.919945	0.958515
823.237999	0.955985
823.556010	0.958849
823.873976	0.963184
824.191897	0.964835
824.509775	0.967271
824.827609	0.971669
825.145398	0.972578
825.463144	0.973862
825.780845	0.972643
826.098502	0.972230
826.416116	0.968450
826.733685	0.967563
827.051210	0.965228
827.368692	0.965980
827.686129	0.966242
828.003522	0.971001
828.320872	0.973424
828.638177	0.977352
828.955439	0.981781
829.272656	0.984226
829.589830	0.984845
829.906960	0.986909
830.224046	0.987776
830.541088	0.988435
830.858086	0.988059
831.175041	0.989070
831.491952	0.988574
831.808819	0.988988
832.125642	0.988852
832.442421	0.985731
832.759157	0.985644
833.075849	0.980655
833.392497	0.977682
833.709101	0.973373
834.025662	0.972969
834.342179	0.973786
834.658653	0.979088
834.975083	0.980840
835.291469	0.983040
835.607811	0.984758
835.924110	0.986191
836.240366	0.988718
836.556578	0.991043
836.872746	0.991023
837.188871	0.991602
837.504952	0.991843
837.820990	0.993074
838.136984	0.991343
838.452935	0.993647
838.768842	0.993436
839.084706	0.992944
839.400526	0.990123
839.716303	0.988833
840.032037	0.987075
840.347727	0.985889
840.663373	0.986874
840.978977	0.987251
841.294537	0.989817
841.610054	0.992166
841.925527	0.994065
842.240957	0.993181
842.556344	0.992661
842.871687	0.995306
843.186987	0.995380
843.502244	0.994512
843.817458	0.994682
844.132629	0.994912
844.447756	0.996219
844.762840	0.996892
845.077881	0.995452
845.392879	0.996331
845.707833	0.996319
846.022745	0.997309
846.337613	0.996801
846.652438	0.997720
846.967221	0.995679
847.281960	0.995475
847.596656	0.997744
847.911309	0.996378
848.225919	0.998080
848.540485	0.996721
848.855009	0.996828
849.169490	0.996667
849.483928	0.997525
849.798323	0.997119
850.112675	0.997603
850.426984	0.997944
850.741251	0.996775
851.055474	0.996838
851.369654	0.995825
851.683792	0.997999
851.997887	0.996676
852.311938	0.998061
852.625947	0.998102
852.939914	0.995863
853.253837	0.997565
853.567718	0.998119
853.881555	0.997179
854.195350	0.995955
854.509103	0.997721
854.822812	0.996795
855.136479	0.996942
855.450103	0.997283
855.763685	0.996736
856.077224	0.996570
856.390720	0.997175
856.704173	0.997207
857.017584	0.996984
857.330953	0.995693
857.644278	0.997285
857.957561	0.996451
858.270802	0.996564
858.584000	0.996504
858.897155	0.994911
859.210268	0.997085
859.523339	0.995497
859.836367	0.996486
860.149352	0.996688
860.462295	0.995914
860.775195	0.996241
861.088054	0.994906
861.400869	0.995572
861.713642	0.996997
862.026373	0.996096
862.339062	0.996624
862.651708	0.996051
862.964312	0.996380
863.276873	0.996078
863.589392	0.996459
863.901869	0.996576
864.214303	0.996795
864.526696	0.996546
864.839045	0.996080
865.151353	0.995728
865.463619	0.996621
865.775842	0.995107
866.088023	0.995440
866.400162	0.995213
866.712258	0.995903
867.024313	0.995221
867.336325	0.995211
867.648296	0.995566
867.960224	0.996936
868.272110	0.994981
868.583954	0.994836
868.895755	0.996245
869.207515	0.995490
869.519233	0.994779
869.830909	0.995319
870.142542	0.994239
870.454134	0.995221
870.765684	0.994257
871.077191	0.994267
871.388657	0.995761
871.700081	0.993700
872.011463	0.994346
872.322803	0.994819
872.634101	0.994386
872.945357	0.994834
873.256571	0.995190
873.567744	0.993916
873.878874	0.994132
874.189963	0.992044
874.501010	0.993488
874.812015	0.993039
875.122979	0.994646
875.433900	0.993296
875.744780	0.992370
876.055618	0.992985
876.366415	0.993083
876.677169	0.993230
876.987882	0.993594
877.298554	0.993216
877.609183	0.992482
877.919771	0.991220
878.230317	0.991010
878.540822	0.990120
878.851285	0.989529
879.161707	0.988947
879.472087	0.987058
879.782425	0.983630
880.092722	0.979561
880.402977	0.974661
880.713191	0.971587
881.023363	0.968109
881.333494	0.966376
881.643583	0.964868
881.953631	0.963298
882.263637	0.962099
882.573602	0.964489
882.883526	0.966184
883.193408	0.967731
883.503248	0.968835
883.813048	0.971204
884.122806	0.974980
884.432522	0.976909
884.742197	0.980802
885.051831	0.981980
885.361424	0.982784
885.670975	0.984497
885.980485	0.986596
886.289954	0.987700
886.599382	0.988893
886.908768	0.989374
887.218113	0.990310
887.527417	0.991421
887.836680	0.991032
888.145901	0.992223
888.455082	0.991554
888.764221	0.993158
889.073319	0.991639
889.382376	0.992853
889.691392	0.992520
890.000366	0.992443
890.309300	0.994204
890.618193	0.993993
890.927044	0.993323
891.235855	0.992449
891.544625	0.992916
891.853353	0.992579
892.162041	0.992751
892.470687	0.990783
892.779293	0.990572
893.087858	0.990526
893.396381	0.990014
893.704864	0.988005
894.013306	0.984648
894.321707	0.981015
894.630068	0.979063
894.938387	0.978543
895.246665	0.975511
895.554903	0.977651
895.863100	0.978971
896.171256	0.980799
896.479371	0.984274
896.787446	0.986335
897.095480	0.988178
897.403473	0.989170
897.711425	0.988971
898.019336	0.991112
898.327207	0.989463
898.635038	0.991249
898.942827	0.990268
899.250576	0.992438
899.558284	0.992445
899.865952	0.993304
900.173579	0.992482
900.481165	0.992634
900.788711	0.995111
901.096216	0.993375
901.403681	0.993288
901.711105	0.994807
902.018489	0.994483
902.325832	0.993288
902.633135	0.994339
902.940397	0.992897
903.247619	0.991561
903.554800	0.987265
903.861941	0.983084
904.169041	0.980055
904.476101	0.976556
904.783121	0.974842
905.090100	0.977170
905.397039	0.978490
905.703938	0.981364
906.010796	0.984155
906.317614	0.986751
906.624391	0.987824
906.931129	0.990645
907.237826	0.991579
907.544483	0.994780
907.851099	0.993295
908.157675	0.996015
908.464211	0.994887
908.770707	0.996132
909.077163	0.996330
909.383578	0.996107
909.689954	0.995940
909.996289	0.996036
910.302584	0.996936
910.608839	0.997555
910.915054	0.996307
911.221229	0.997000
911.527363	0.996768
911.833458	0.996341
912.139513	0.996159
912.445527	0.995048
912.751502	0.995474
913.057436	0.995837
913.363331	0.995133
913.669186	0.994622
913.975000	0.993991
914.280775	0.993182
914.586510	0.991954
914.892205	0.990318
915.197859	0.987620
915.503475	0.984062
915.809050	0.981678
916.114585	0.979734
916.420081	0.979597
916.725536	0.977995
917.030952	0.979011
917.336328	0.980408
917.641665	0.982199
917.946961	0.984834
918.252218	0.986770
918.557435	0.987450
918.862612	0.990118
919.167750	0.991633
919.472848	0.991376
919.777906	0.991545
920.082925	0.993752
920.387904	0.994290
920.692843	0.994752
920.997743	0.993204
921.302603	0.993879
921.607423	0.994542
921.912204	0.995700
922.216946	0.994389
922.521647	0.996305
922.826310	0.996219
923.130932	0.996357
923.435516	0.997340
923.740059	0.997444
924.044564	0.995494
924.349028	0.995931
924.653454	0.998489
924.957840	0.999206
925.262186	0.996845
925.566493	0.998204
925.870761	0.998755
926.174989	0.998026
926.479178	0.999344
926.783328	0.998909
927.087438	0.998468
927.391509	0.998626
927.695541	0.999611
927.999533	0.998476
928.303486	0.998712
928.607400	1.000768
928.911275	0.999120
929.215110	0.998392
929.518906	0.999900
929.822663	0.998776
930.126381	1.001191
930.430060	0.999013
930.733699	1.000685
931.037299	0.999056
931.340861	0.999997
931.644383	0.999638
931.947866	0.999457
932.251309	0.999526
932.554714	0.999785
932.858080	1.000181
933.161407	0.998294
933.464694	1.000726
933.767943	0.999016
934.071153	0.999457
934.374323	0.999749
934.677455	0.999403
934.980548	0.999102
935.283602	0.999348
935.586617	0.998804
935.889593	0.998335
936.192530	0.997228
936.495428	0.998998
936.798287	0.999313
937.101108	0.998649
937.403890	0.998690
937.706632	0.999505
938.009336	0.998766
938.312002	0.998351
938.614628	0.997074
938.917216	0.996698
939.219765	0.995302
939.522275	0.997284
939.824747	0.997319
940.127179	0.997128
940.429573	0.997526
940.731929	0.998237
941.034246	0.997346
941.336524	0.997971
941.638763	0.998567
941.940964	0.999241
942.243126	0.998357
942.545250	0.998853
942.847335	0.998029
943.149381	0.997872
943.451389	0.998375
943.753359	0.998314
944.055290	1.000995
944.357182	0.999300
944.659036	0.998040
944.960851	0.998032
945.262628	0.997536
945.564367	0.999708
945.866067	0.999712
946.167729	0.999528
946.469352	0.999617
946.770937	0.997883
947.072484	1.000536
947.373992	0.998210
947.675462	0.999828
947.976893	0.998545
948.278286	0.998504
948.579641	0.999114
948.880958	0.998169
949.182236	0.999482
949.483476	0.999570
949.784678	0.998902
950.085841	1.000213
950.386967	0.998984
950.688054	0.997674
950.989103	0.998273
951.290114	0.998592
951.591087	0.999369
951.892021	0.999066
952.192917	0.997931
952.493776	0.998426
952.794596	0.999353
953.095378	0.998179
953.396122	0.998831
953.696828	0.997431
953.997496	0.998578
954.298126	0.999251
954.598718	0.998606
954.899272	1.000039
955.199788	0.998485
955.500266	1.000066
955.800706	0.999353
956.101108	1.000567
956.401472	1.000264
956.701798	1.001419
957.002087	0.998388
957.302337	0.999242
957.602550	1.001052
957.902724	1.000664
958.202861	1.000152
958.502960	1.000734
958.803022	0.997985
959.103045	1.000578
959.403031	0.999533
959.702979	0.999248
960.002889	0.999940
960.302762	0.998766
960.602596	0.999386
960.902393	0.998732
961.202153	1.001460
961.501875	1.000321
961.801559	0.999967
962.101205	0.999628
962.400814	0.999994
962.700385	1.000188
962.999918	1.000212
963.299414	1.000337
963.598873	0.998838
963.898293	0.999850
964.197677	0.999019
964.497022	0.999677
964.796331	1.000999
965.095601	1.000468
965.394835	0.999490
965.694030	0.999798
965.993189	0.999800
966.292309	1.000410
966.591393	1.002362
966.890439	1.000006
967.189447	1.000368
967.488419	1.000416
967.787353	0.999065
968.086249	0.998997
968.385108	1.000639
968.683930	0.999381
968.982714	1.001473
969.281462	1.000006
969.580172	1.000332
969.878844	1.000347
970.177480	1.000158
970.476078	1.001613
970.774639	1.001384
971.073162	1.000777
971.371649	1.000114
971.670098	0.999812
971.968510	1.001157
972.266885	0.999923
972.565223	1.000624
972.863524	1.000130
973.161788	1.000224
973.460014	1.000447
973.758204	0.998626
974.056356	0.999716
974.354471	0.999289
974.652550	1.000019
974.950591	0.999943
975.248595	0.999389
975.546563	0.999823
975.844493	1.002195
976.142386	1.000167
976.440243	1.000879
976.738062	1.000637
977.035845	1.001081
977.333590	1.000507
977.631299	1.000211
977.928971	0.999912
978.226606	0.998855
978.524204	1.000015
978.821765	1.001141
979.119290	0.999556
979.416777	0.999953
979.714228	0.999833
980.011642	0.999574
980.309020	1.000967
980.606360	0.999353
980.903664	1.003166
981.200931	0.999520
981.498162	0.999534
981.795356	0.998637
982.092513	0.998832
982.389633	1.000635
982.686717	0.998443
982.983764	0.999814
983.280775	0.997784
983.577749	0.998471
983.874686	0.999189
984.171587	0.998132
984.468451	1.000078
984.765279	0.999806
985.062070	0.998387
985.358824	0.999403
985.655543	0.998084
985.952224	0.999016
986.248869	1.000121
986.545478	0.999321
986.842050	1.001210
987.138586	0.999297
987.435086	0.999760
987.731549	1.000687
988.027975	1.000235
988.324366	1.000137
988.620719	1.001118
988.917037	0.998255
989.213318	1.000574
989.509563	1.001372
989.805772	0.999960
990.101944	1.000993
990.398080	1.000028
990.694180	1.000598
990.990244	0.999844
991.286271	1.000651
991.582262	1.000799
991.878217	1.000255
992.174136	1.000991
992.470019	1.001783
992.765865	1.000260
993.061676	1.000535
993.357450	1.000048
993.653188	0.999374
993.948890	0.999685
994.244556	1.000066
994.540186	0.999420
994.835780	0.998768
995.131337	1.000864
995.426859	0.998939
995.722345	0.999874
996.017795	0.999691
996.313208	1.000142
996.608586	0.998472
996.903928	1.000136
997.199234	1.000136
997.494504	0.999537
997.789738	0.999050
998.084936	0.999490
998.380099	1.000889
998.675225	0.999458
998.970316	0.999955
999.265371	0.999710
999.560390	1.000006
999.855373	1.001563
1000.150320	1.000197
1000.445232	1.000496
1000.740108	1.000763
1001.034948	1.000685
1001.329752	1.001033
1001.624521	1.000618
1001.919254	0.999806
1002.213951	0.999633
1002.508613	1.000420
1002.803239	1.002033
1003.097829	1.000013
1003.392384	1.001651
1003.686903	1.000347
1003.981386	1.000560
1004.275834	1.001271
1004.570246	0.999904
1004.864623	1.001098
1005.158964	1.001024
1005.453270	1.001411
1005.747540	0.999622
1006.041775	1.000732
1006.335974	1.001909
1006.630138	1.001387
1006.924266	1.000666
1007.218359	1.001189
1007.512416	1.001869
1007.806438	1.000808
1008.100425	1.000987
1008.394376	1.000120
1008.688292	1.000566
1008.982172	1.001547
1009.276017	1.001079
1009.569827	1.000515
1009.863602	1.000503
1010.157341	1.000840
1010.451045	1.001457
1010.744714	1.000472
1011.038347	1.000686
1011.331945	1.000753
1011.625508	0.999407
1011.919036	0.999837
1012.212528	1.002100
1012.505986	1.000086
1012.799408	1.000235
1013.092795	1.000404
1013.386147	1.000846
1013.679464	1.001624
1013.972745	0.999778
1014.265992	0.999520
1014.559204	0.999951
1014.852380	1.001193
1015.145521	1.000439
1015.438628	1.001646
1015.731699	1.000014
1016.024736	1.000597
1016.317737	0.999492
1016.610703	1.000927
1016.903635	1.002059
1017.196531	1.000491
1017.489393	1.002015
1017.782219	1.000092
1018.075011	1.000095
1018.367768	1.000150
1018.660490	1.001001
1018.953177	1.001001
1019.245829	1.001001
