Dividing Wavelength (nm)	Counts (n)	Blue Motor Position (mm): 0.000000	Red Motor Position (mm): 48.900000	
326.493990	1.001392
326.888308	1.001392
327.282561	1.001392
327.676750	1.000558
328.070874	0.999116
328.464933	0.999436
328.858929	0.998855
329.252859	1.001020
329.646726	0.999003
330.040528	1.000673
330.434265	1.000109
330.827938	1.000206
331.221547	1.000517
331.615091	1.000499
332.008571	1.000866
332.401986	1.000582
332.795338	1.001814
333.188625	0.999266
333.581847	1.000177
333.975006	0.999424
334.368100	0.998931
334.761129	0.999560
335.154095	1.001355
335.546996	0.999189
335.939833	0.998820
336.332606	0.999016
336.725315	1.000422
337.117960	1.001632
337.510540	0.999980
337.903056	1.001060
338.295508	0.999775
338.687896	1.001254
339.080220	1.000743
339.472480	1.000884
339.864676	1.000573
340.256807	1.001023
340.648875	1.000332
341.040879	1.001542
341.432818	0.999469
341.824694	1.000361
342.216506	1.000360
342.608253	1.000857
342.999937	0.998971
343.391557	1.000485
343.783113	0.999213
344.174605	0.999323
344.566033	1.000944
344.957397	0.999519
345.348697	1.000040
345.739934	1.000754
346.131106	1.000014
346.522215	1.000530
346.913260	1.000414
347.304241	1.000137
347.695159	0.999476
348.086012	0.998417
348.476802	0.999917
348.867528	1.000010
349.258191	0.999628
349.648789	0.999011
350.039324	0.999974
350.429796	1.000171
350.820203	1.001143
351.210548	0.999788
351.600828	0.999382
351.991045	1.000483
352.381198	0.999553
352.771288	1.000175
353.161314	0.999852
353.551276	1.001060
353.941175	1.000795
354.331010	1.000023
354.720782	1.000160
355.110490	1.000034
355.500135	1.000450
355.889717	1.000615
356.279235	0.999728
356.668689	1.000578
357.058080	1.000688
357.447408	1.000449
357.836672	1.001437
358.225873	0.999967
358.615010	1.000776
359.004084	0.999835
359.393095	0.999957
359.782043	1.000643
360.170927	1.002617
360.559748	1.001471
360.948505	1.000098
361.337199	1.000064
361.725830	0.999919
362.114398	1.000891
362.502903	1.000897
362.891344	1.000956
363.279722	0.998196
363.668037	1.000694
364.056289	1.001968
364.444478	1.001352
364.832603	1.000671
365.220665	0.999550
365.608665	1.000378
365.996601	1.000837
366.384474	1.000426
366.772284	0.999355
367.160031	0.999495
367.547715	0.998956
367.935336	0.999420
368.322893	0.999760
368.710388	0.999796
369.097820	1.000120
369.485189	0.999603
369.872495	0.999591
370.259738	0.999577
370.646918	1.001430
371.034035	1.000011
371.421090	1.000705
371.808081	1.000475
372.195010	1.000125
372.581875	1.000490
372.968678	1.000670
373.355418	1.000247
373.742096	0.999652
374.128710	1.000546
374.515262	0.999418
374.901751	1.000220
375.288177	1.000160
375.674540	1.002276
376.060841	0.999289
376.447079	1.000555
376.833254	1.000469
377.219367	0.999714
377.605417	1.000595
377.991404	1.000524
378.377329	0.999967
378.763191	1.000412
379.148991	1.001200
379.534727	1.000416
379.920402	1.000064
380.306013	1.000729
380.691563	1.001754
381.077049	1.000232
381.462474	1.001032
381.847835	1.000873
382.233134	1.000867
382.618371	1.000473
383.003545	1.000206
383.388657	1.000387
383.773706	1.001099
384.158693	1.000798
384.543618	1.001356
384.928480	1.001053
385.313280	1.000413
385.698017	1.001570
386.082692	1.002173
386.467305	1.001102
386.851856	1.000450
387.236344	1.000379
387.620770	0.999996
388.005133	1.001515
388.389435	1.001898
388.773674	1.001328
389.157851	1.000552
389.541965	1.000345
389.926018	1.000110
390.310008	1.001374
390.693936	1.001224
391.077802	1.001158
391.461606	1.000378
391.845348	1.001213
392.229027	1.002368
392.612645	1.000820
392.996200	1.002773
393.379694	1.000584
393.763125	1.002209
394.146494	1.001606
394.529801	1.000626
394.913047	1.001414
395.296230	1.001458
395.679351	1.000624
396.062410	1.001009
396.445408	1.001013
396.828343	1.000025
397.211217	1.002086
397.594028	1.002361
397.976778	1.001303
398.359466	1.000080
398.742092	1.000371
399.124656	1.000924
399.507158	1.000848
399.889598	1.001210
400.271977	1.001376
400.654294	1.000981
401.036549	1.001800
401.418742	1.002700
401.800874	1.000786
402.182944	1.001312
402.564952	1.000680
402.946898	1.002758
403.328783	1.001287
403.710606	1.001557
404.092367	1.000712
404.474067	1.000679
404.855705	1.001566
405.237282	1.001563
405.618797	1.001254
406.000250	1.000390
406.381642	1.001280
406.762972	1.000663
407.144240	1.001437
407.525447	1.001832
407.906593	1.001247
408.287677	1.001924
408.668700	1.001849
409.049661	1.000301
409.430560	1.000958
409.811399	1.001260
410.192176	1.001904
410.572891	1.001547
410.953545	1.000474
411.334138	0.999921
411.714669	1.001864
412.095139	1.001160
412.475547	1.002284
412.855894	1.001407
413.236180	1.001710
413.616405	1.001889
413.996568	1.002367
414.376670	1.001229
414.756711	1.001663
415.136691	1.001978
415.516609	1.001578
415.896466	1.000875
416.276262	1.000040
416.655997	1.001803
417.035670	1.000781
417.415283	1.001990
417.794834	1.001286
418.174324	1.001490
418.553753	1.002164
418.933121	1.001264
419.312428	1.001684
419.691674	1.001449
420.070859	1.001009
420.449983	1.001838
420.829045	1.001187
421.208047	1.001866
421.586988	1.001953
421.965867	1.001730
422.344686	1.002201
422.723444	1.001223
423.102141	1.001751
423.480777	1.002268
423.859352	1.001384
424.237866	1.001760
424.616319	1.002269
424.994712	1.002111
425.373044	1.001465
425.751314	1.001407
426.129524	1.000803
426.507673	1.001872
426.885762	1.002429
427.263789	1.001399
427.641756	1.001538
428.019662	1.002719
428.397508	1.001485
428.775292	1.001832
429.153016	1.001774
429.530679	1.001788
429.908282	1.002742
430.285824	1.001012
430.663305	1.002081
431.040726	1.000735
431.418086	1.002523
431.795385	1.002011
432.172624	1.000799
432.549802	1.002050
432.926920	1.002393
433.303977	1.000945
433.680974	1.001604
434.057910	1.001614
434.434786	1.002096
434.811601	1.001054
435.188355	1.001516
435.565050	1.001056
435.941683	1.001639
436.318257	1.002571
436.694770	1.001853
437.071222	1.001855
437.447614	1.001660
437.823946	1.001828
438.200218	1.002108
438.576429	1.001968
438.952580	1.001856
439.328670	1.001288
439.704700	1.002838
440.080670	1.002272
440.456580	1.001964
440.832429	1.001347
441.208218	1.002440
441.583947	1.001795
441.959616	1.001939
442.335224	1.001409
442.710773	1.002051
443.086261	1.000909
443.461689	1.001054
443.837057	1.001438
444.212365	1.001572
444.587612	1.002261
444.962800	1.001458
445.337927	1.002014
445.712995	1.002762
446.088002	1.002730
446.462949	1.001933
446.837837	1.002585
447.212664	1.001700
447.587431	1.002677
447.962139	1.001405
448.336786	1.002375
448.711374	1.002770
449.085901	1.001167
449.460369	1.001757
449.834776	1.002032
450.209124	1.002676
450.583412	1.001594
450.957640	1.001397
451.331808	1.001731
451.705917	1.001868
452.079965	1.001793
452.453954	1.002183
452.827883	1.002361
453.201752	1.002264
453.575562	1.002552
453.949311	1.001730
454.323001	1.001488
454.696632	1.001536
455.070202	1.001464
455.443713	1.002104
455.817164	1.001936
456.190556	1.001572
456.563888	1.001197
456.937160	1.002202
457.310373	1.001709
457.683526	1.001653
458.056619	1.002432
458.429653	1.002397
458.802628	1.001511
459.175542	1.001720
459.548398	1.001591
459.921194	1.002016
460.293930	1.001740
460.666607	1.000924
461.039224	1.001101
461.411782	1.001014
461.784280	1.001683
462.156719	1.002630
462.529099	1.002572
462.901419	1.002138
463.273680	1.001898
463.645882	1.001621
464.018024	1.002100
464.390106	1.001936
464.762130	1.002667
465.134094	1.002112
465.505999	1.002215
465.877845	1.001321
466.249631	1.002596
466.621358	1.002031
466.993026	1.002583
467.364634	1.001867
467.736184	1.002484
468.107674	1.001667
468.479105	1.001689
468.850477	1.002597
469.221790	1.002489
469.593043	1.002793
469.964238	1.002631
470.335373	1.002344
470.706449	1.002564
471.077467	1.002258
471.448425	1.002226
471.819324	1.002519
472.190164	1.002214
472.560945	1.002492
472.931667	1.002490
473.302330	1.001719
473.672934	1.002455
474.043479	1.002673
474.413965	1.001959
474.784393	1.002537
475.154761	1.002366
475.525070	1.001511
475.895321	1.002392
476.265513	1.001611
476.635645	1.002194
477.005719	1.002350
477.375734	1.001439
477.745691	1.002602
478.115588	1.002236
478.485427	1.002388
478.855207	1.002009
479.224928	1.002496
479.594591	1.002489
479.964194	1.002160
480.333739	1.002157
480.703226	1.002694
481.072653	1.003245
481.442022	1.003117
481.811333	1.001557
482.180584	1.002472
482.549777	1.001786
482.918912	1.001796
483.287988	1.002322
483.657005	1.001361
484.025964	1.002985
484.394864	1.002337
484.763706	1.002657
485.132489	1.002602
485.501213	1.002476
485.869879	1.002499
486.238487	1.002516
486.607036	1.002404
486.975527	1.002460
487.343959	1.002174
487.712333	1.002639
488.080648	1.002404
488.448905	1.002578
488.817104	1.002349
489.185244	1.002505
489.553326	1.002850
489.921350	1.001969
490.289315	1.002187
490.657222	1.002646
491.025070	1.002436
491.392861	1.002626
491.760593	1.002923
492.128267	1.002368
492.495883	1.002243
492.863440	1.002478
493.230939	1.002589
493.598380	1.001788
493.965763	1.002171
494.333088	1.002772
494.700354	1.002313
495.067563	1.002164
495.434713	1.002158
495.801805	1.002768
496.168839	1.002181
496.535815	1.002029
496.902733	1.001859
497.269593	1.002126
497.636395	1.002832
498.003139	1.002412
498.369825	1.002815
498.736453	1.003022
499.103023	1.001508
499.469535	1.002520
499.835989	1.002122
500.202385	1.002312
500.568723	1.002794
500.935003	1.002246
501.301226	1.002183
501.667390	1.001882
502.033497	1.002456
502.399546	1.003161
502.765537	1.001381
503.131470	1.001975
503.497345	1.001854
503.863163	1.002901
504.228923	1.002551
504.594625	1.002505
504.960269	1.003437
505.325856	1.002702
505.691385	1.002329
506.056856	1.002325
506.422270	1.002099
506.787625	1.002541
507.152924	1.001992
507.518164	1.001632
507.883347	1.002351
508.248472	1.002254
508.613540	1.002093
508.978550	1.002733
509.343503	1.001593
509.708398	1.002735
510.073236	1.002665
510.438016	1.002650
510.802738	1.001875
511.167403	1.003007
511.532010	1.002393
511.896561	1.001772
512.261053	1.003025
512.625488	1.001678
512.989866	1.002562
513.354186	1.001819
513.718449	1.002059
514.082655	1.002437
514.446803	1.001632
514.810894	1.002604
515.174927	1.002130
515.538904	1.002097
515.902822	1.001807
516.266684	1.002058
516.630488	1.002760
516.994235	1.001855
517.357925	1.002549
517.721558	1.002093
518.085133	1.002114
518.448651	1.002709
518.812112	1.003008
519.175516	1.002284
519.538863	1.002651
519.902152	1.002133
520.265385	1.002653
520.628560	1.002038
520.991678	1.002691
521.354739	1.002529
521.717743	1.002538
522.080690	1.002044
522.443580	1.001638
522.806413	1.002134
523.169189	1.002376
523.531908	1.002185
523.894569	1.002881
524.257174	1.002277
524.619722	1.002690
524.982213	1.002034
525.344647	1.002453
525.707025	1.002041
526.069345	1.001855
526.431608	1.001758
526.793815	1.002573
527.155964	1.002374
527.518057	1.002221
527.880093	1.002903
528.242072	1.002091
528.603995	1.001900
528.965860	1.003892
529.327669	1.002549
529.689421	1.002395
530.051117	1.002584
530.412755	1.002231
530.774337	1.002547
531.135862	1.002170
531.497331	1.002041
531.858743	1.002716
532.220098	1.002660
532.581396	1.002446
532.942638	1.002433
533.303824	1.002101
533.664953	1.003043
534.026025	1.001602
534.387040	1.001872
534.747999	1.002111
535.108902	1.002544
535.469748	1.002197
535.830537	1.001681
536.191270	1.002764
536.551947	1.002178
536.912567	1.002302
537.273131	1.002535
537.633638	1.002097
537.994089	1.002254
538.354483	1.002271
538.714821	1.002553
539.075103	1.002435
539.435328	1.002688
539.795497	1.002228
540.155609	1.002016
540.515665	1.002928
540.875665	1.002284
541.235609	1.002218
541.595496	1.002007
541.955328	1.001763
542.315102	1.002751
542.674821	1.002093
543.034483	1.001488
543.394090	1.001509
543.753640	1.002715
544.113134	1.002235
544.472571	1.002747
544.831953	1.002602
545.191278	1.002558
545.550548	1.003227
545.909761	1.002131
546.268918	1.002697
546.628019	1.002381
546.987064	1.002276
547.346053	1.002252
547.704986	1.003053
548.063863	1.002307
548.422684	1.002217
548.781449	1.002839
549.140158	1.002136
549.498811	1.002664
549.857408	1.002865
550.215949	1.002688
550.574434	1.002195
550.932864	1.002840
551.291237	1.002739
551.649555	1.002589
552.007817	1.002442
552.366022	1.001682
552.724173	1.002214
553.082267	1.002884
553.440305	1.001395
553.798288	1.002390
554.156215	1.002522
554.514086	1.002402
554.871902	1.002457
555.229661	1.001931
555.587365	1.002740
555.945014	1.002987
556.302606	1.002389
556.660143	1.002520
557.017625	1.002619
557.375050	1.001808
557.732421	1.002145
558.089735	1.002676
558.446994	1.002747
558.804197	1.002910
559.161345	1.002984
559.518437	1.003557
559.875474	1.002149
560.232455	1.002448
560.589381	1.002400
560.946251	1.001572
561.303065	1.002329
561.659825	1.002283
562.016528	1.001607
562.373177	1.001841
562.729770	1.002176
563.086307	1.002616
563.442789	1.001989
563.799216	1.002266
564.155587	1.002156
564.511904	1.001553
564.868164	1.001624
565.224370	1.002520
565.580520	1.002907
565.936615	1.001994
566.292654	1.002061
566.648638	1.002140
567.004567	1.002176
567.360441	1.002236
567.716260	1.002841
568.072023	1.002104
568.427732	1.002430
568.783385	1.002507
569.138982	1.002122
569.494525	1.001722
569.850013	1.002174
570.205445	1.002158
570.560823	1.002721
570.916145	1.002649
571.271412	1.002453
571.626625	1.002095
571.981782	1.002381
572.336884	1.002813
572.691931	1.001393
573.046923	1.001599
573.401860	1.002465
573.756743	1.002511
574.111570	1.002495
574.466342	1.002285
574.821059	1.002009
575.175722	1.002175
575.530330	1.001876
575.884882	1.001822
576.239380	1.003046
576.593823	1.002043
576.948211	1.001521
577.302544	1.001698
577.656823	1.001726
578.011047	1.002171
578.365216	1.002001
578.719330	1.001307
579.073389	1.002459
579.427394	1.001898
579.781344	1.002544
580.135239	1.002086
580.489080	1.001843
580.842866	1.001923
581.196597	1.001625
581.550273	1.001432
581.903895	1.002022
582.257463	1.002215
582.610975	1.002278
582.964434	1.002516
583.317837	1.002733
583.671186	1.002273
584.024481	1.001489
584.377721	1.001277
584.730906	1.002166
585.084037	1.001717
585.437113	1.001870
585.790135	1.002111
586.143103	1.001475
586.496016	1.002483
586.848874	1.002114
587.201679	1.001887
587.554428	1.002092
587.907124	1.002188
588.259765	1.002281
588.612352	1.002900
588.964884	1.002377
589.317362	1.002027
589.669786	1.001735
590.022155	1.001908
590.374470	1.001442
590.726731	1.002008
591.078937	1.001449
591.431090	1.001608
591.783188	1.001811
592.135232	1.002081
592.487222	1.002493
592.839157	1.002026
593.191038	1.001968
593.542866	1.001869
593.894639	1.002138
594.246358	1.002104
594.598022	1.001889
594.949633	1.001843
595.301190	1.001766
595.652692	1.001675
596.004141	1.002882
596.355535	1.002002
596.706876	1.001717
597.058162	1.001707
597.409395	1.002393
597.760573	1.001239
598.111698	1.001496
598.462768	1.001458
598.813785	1.001479
599.164748	1.001970
599.515657	1.001884
599.866511	1.001797
600.217312	1.001835
600.568060	1.001643
600.918753	1.002540
601.269392	1.002011
601.619978	1.001933
601.970510	1.001760
602.320988	1.002190
602.671412	1.001633
603.021783	1.001733
603.372100	1.002295
603.722363	1.001940
604.072572	1.001444
604.422728	1.002386
604.772830	1.001499
605.122878	1.001591
605.472872	1.001424
605.822813	1.000841
606.172701	1.001419
606.522534	1.002100
606.872314	1.001827
607.222041	1.001188
607.571714	1.002168
607.921333	1.001405
608.270899	1.001330
608.620411	1.002208
608.969870	1.001961
609.319276	1.001446
609.668627	1.002774
610.017926	1.001329
610.367171	1.001826
610.716362	1.001725
611.065500	1.001580
611.414585	1.001863
611.763616	1.002127
612.112594	1.001514
612.461518	1.001924
612.810389	1.001419
613.159207	1.002117
613.507971	1.001116
613.856682	1.002145
614.205340	1.001861
614.553945	1.000861
614.902496	1.001695
615.250994	1.001377
615.599439	1.002000
615.947830	1.001380
616.296169	1.002220
616.644454	1.001266
616.992686	1.001674
617.340864	1.001274
617.688990	1.002087
618.037063	1.001868
618.385082	1.001720
618.733048	1.001390
619.080961	1.001987
619.428821	1.001518
619.776628	1.001582
620.124382	1.001341
620.472083	1.000783
620.819731	1.001601
621.167326	1.001691
621.514868	1.001978
621.862357	1.001689
622.209793	1.001562
622.557176	1.000560
622.904506	1.001590
623.251783	1.000570
623.599007	1.001642
623.946179	1.002732
624.293297	1.002005
624.640363	1.001810
624.987376	1.000939
625.334336	1.001264
625.681243	1.001680
626.028097	1.002384
626.374899	1.002011
626.721647	1.001105
627.068343	1.001558
627.414987	1.001726
627.761577	1.001758
628.108115	1.000765
628.454600	1.002404
628.801032	1.001044
629.147412	1.001777
629.493739	1.000475
629.840014	1.001263
630.186236	1.001773
630.532405	1.001351
630.878521	1.001721
631.224585	1.000777
631.570597	1.001898
631.916556	1.001618
632.262462	1.001366
632.608316	1.001423
632.954117	1.001463
633.299866	1.000886
633.645562	1.001368
633.991206	1.001142
634.336797	1.002170
634.682336	1.001724
635.027823	1.001304
635.373257	1.001645
635.718639	1.001051
636.063968	1.001189
636.409245	1.001293
636.754470	1.001632
637.099642	1.002077
637.444762	1.001579
637.789829	1.001614
638.134845	1.000264
638.479808	1.001094
638.824719	1.001501
639.169577	1.001311
639.514383	1.001426
639.859137	1.000187
640.203839	1.001141
640.548489	1.000460
640.893086	1.002261
641.237632	1.001337
641.582125	1.000716
641.926566	1.000015
642.270955	1.001201
642.615292	1.001880
642.959576	1.001327
643.303809	1.001901
643.647990	1.000801
643.992118	1.001216
644.336195	1.001533
644.680219	1.001782
645.024192	1.001411
645.368112	1.000517
645.711981	1.000964
646.055797	1.000707
646.399562	1.000062
646.743274	1.000003
647.086935	1.000764
647.430544	1.000900
647.774101	1.001707
648.117606	1.001047
648.461059	1.000958
648.804460	1.001274
649.147810	1.001344
649.491108	1.001426
649.834354	1.000123
650.177548	1.001546
650.520690	1.001142
650.863781	1.001401
651.206820	1.001343
651.549807	1.000955
651.892742	1.000801
652.235626	1.000576
652.578458	1.001320
652.921238	1.001685
653.263967	1.001505
653.606644	1.001430
653.949269	1.001575
654.291843	1.001479
654.634365	1.000717
654.976836	1.001001
655.319255	1.000698
655.661622	1.001551
656.003938	1.001664
656.346203	1.001505
656.688416	1.002000
657.030577	1.001665
657.372687	1.000966
657.714746	1.001310
658.056753	1.001702
658.398708	1.000647
658.740612	1.001787
659.082465	1.001198
659.424266	1.001206
659.766016	0.999776
660.107715	1.000367
660.449362	1.001373
660.790958	1.000795
661.132503	1.000395
661.473996	1.001401
661.815438	1.001094
662.156829	1.000640
662.498168	1.001059
662.839456	1.000467
663.180693	1.001148
663.521879	1.001457
663.863013	1.002021
664.204097	1.001605
664.545129	1.001786
664.886110	1.000940
665.227040	1.000484
665.567918	1.000502
665.908746	1.001253
666.249522	1.000280
666.590248	1.000979
666.930922	1.000543
667.271545	1.001192
667.612118	1.001245
667.952639	1.000855
668.293109	1.001177
668.633528	1.001130
668.973896	1.001550
669.314213	1.000931
669.654480	1.001133
669.994695	1.000398
670.334859	1.000700
670.674973	1.000979
671.015035	1.001469
671.355047	1.001028
671.695008	1.000765
672.034918	1.000156
672.374777	1.000357
672.714585	1.001313
673.054342	1.001215
673.394049	1.001115
673.733705	0.999251
674.073310	1.001066
674.412864	1.000916
674.752368	1.001575
675.091820	1.001784
675.431223	1.000302
675.770574	1.000910
676.109875	1.000648
676.449125	1.001513
676.788324	0.999906
677.127473	1.001507
677.466571	1.000914
677.805619	1.001293
678.144616	1.000676
678.483562	1.000523
678.822458	1.000302
679.161303	1.001830
679.500098	1.000901
679.838842	1.001148
680.177535	1.001344
680.516179	1.000936
680.854771	1.001204
681.193314	1.000979
681.531805	1.001064
681.870247	1.000363
682.208638	1.000867
682.546978	1.000034
682.885268	1.000498
683.223508	1.001195
683.561697	1.000597
683.899836	1.000646
684.237925	1.001156
684.575963	1.000684
684.913951	1.000045
685.251889	1.001061
685.589776	1.000039
685.927614	1.000456
686.265401	1.000854
686.603137	1.000502
686.940824	1.000574
687.278460	1.000451
687.616046	1.000215
687.953582	0.999249
688.291068	1.000222
688.628504	1.000934
688.965889	0.999397
689.303224	0.999716
689.640510	1.000935
689.977745	1.001090
690.314930	1.001700
690.652065	1.000432
690.989150	1.000861
691.326185	1.000924
691.663170	1.000547
692.000105	1.000495
692.336990	0.999934
692.673825	1.001394
693.010610	1.001370
693.347345	0.999645
693.684030	1.001122
694.020665	1.001715
694.357251	1.000003
694.693786	1.001687
695.030272	1.001430
695.366707	1.000995
695.703093	1.001023
696.039429	1.001489
696.375716	1.000288
696.711952	1.001271
697.048139	1.000823
697.384276	1.000378
697.720363	1.000390
698.056400	0.999865
698.392388	0.999996
698.728326	1.001015
699.064214	1.001450
699.400053	1.000884
699.735842	1.001584
700.071581	1.001674
700.407270	1.000166
700.742910	1.001197
701.078501	1.001774
701.414042	1.001196
701.749533	1.000569
702.084974	0.999803
702.420366	1.000299
702.755709	0.999785
703.091002	1.000974
703.426246	1.000614
703.761440	1.000327
704.096584	1.000140
704.431679	1.000353
704.766725	1.000466
705.101721	1.000219
705.436668	1.000164
705.771565	0.999828
706.106413	1.000438
706.441212	1.000698
706.775961	1.000411
707.110661	1.000305
707.445311	1.000580
707.779913	1.000565
708.114465	1.000940
708.448967	1.000608
708.783421	1.000356
709.117825	1.000185
709.452180	1.001794
709.786485	0.999730
710.120742	1.000293
710.454949	0.999955
710.789107	1.000135
711.123216	1.000472
711.457275	1.001387
711.791286	0.999603
712.125247	1.000615
712.459159	0.999627
712.793023	1.000432
713.126837	1.001568
713.460602	1.001146
713.794318	1.000623
714.127985	1.000679
714.461602	1.000807
714.795171	0.999866
715.128691	0.999997
715.462162	1.000666
715.795584	0.999163
716.128957	1.001049
716.462281	1.000975
716.795556	1.000558
717.128782	1.000783
717.461960	1.000336
717.795088	1.000317
718.128167	1.000376
718.461198	1.000768
718.794180	1.000015
719.127113	1.001126
719.459997	1.000643
719.792833	1.001055
720.125619	1.000111
720.458357	1.000309
720.791046	1.001195
721.123686	1.000195
721.456278	1.000260
721.788821	0.999809
722.121315	0.999683
722.453761	1.000708
722.786158	1.000833
723.118506	1.000731
723.450805	0.999872
723.783056	0.999333
724.115259	1.000693
724.447412	0.999870
724.779518	1.000555
725.111574	1.000529
725.443582	1.001372
725.775542	0.999994
726.107453	1.000430
726.439315	1.000363
726.771129	0.999569
727.102895	0.999450
727.434612	1.000198
727.766281	1.000220
728.097901	0.999836
728.429473	1.001253
728.760996	0.999645
729.092471	0.999509
729.423897	1.000770
729.755276	1.000153
730.086606	0.999947
730.417887	1.000520
730.749120	1.000450
731.080305	1.000668
731.411442	0.999809
731.742530	1.000560
732.073570	1.000597
732.404562	1.001259
732.735506	1.001034
733.066401	1.001032
733.397249	1.001407
733.728048	1.000644
734.058798	1.000420
734.389501	0.999835
734.720156	0.999759
735.050762	1.000696
735.381320	1.000421
735.711831	1.002258
736.042293	1.000600
736.372707	1.000961
736.703073	1.000756
737.033391	1.000868
737.363661	1.001177
737.693883	1.000831
738.024056	1.000508
738.354182	1.000962
738.684260	1.000174
739.014290	0.999606
739.344272	1.000158
739.674207	1.000722
740.004093	1.000171
740.333931	1.000082
740.663722	0.999876
740.993464	1.000580
741.323159	1.000069
741.652806	1.000372
741.982405	1.000934
742.311956	0.999772
742.641460	1.000748
742.970915	0.999457
743.300323	1.000388
743.629683	1.001288
743.958996	1.000953
744.288260	0.999981
744.617477	1.000733
744.946647	1.000774
745.275768	1.000099
745.604842	0.999765
745.933869	1.000617
746.262847	0.999199
746.591778	0.999141
746.920662	1.000185
747.249498	0.999838
747.578286	1.000328
747.907027	0.999306
748.235720	1.001423
748.564365	0.999086
748.892963	1.000446
749.221514	0.999741
749.550017	1.000994
749.878473	1.000101
750.206881	0.999625
750.535242	1.001546
750.863555	1.000625
751.191821	1.000889
751.520039	1.000736
751.848210	1.000308
752.176334	0.999738
752.504411	1.000164
752.832440	1.000027
753.160421	1.000254
753.488356	1.001020
753.816243	1.000266
754.144082	0.999656
754.471875	1.000569
754.799620	0.999508
755.127318	0.999961
755.454969	1.000888
755.782572	1.000259
756.110129	1.000056
756.437638	0.999870
756.765100	1.000289
757.092515	0.999980
757.419882	1.001064
757.747203	1.000098
758.074477	0.999789
758.401703	1.000223
758.728882	0.999650
759.056014	1.000356
759.383099	1.001749
759.710138	0.999477
760.037129	1.001211
760.364073	1.000618
760.690970	1.000238
761.017820	1.001623
761.344623	1.000615
761.671379	0.999841
761.998088	1.000920
762.324751	1.001412
762.651366	1.000629
762.977935	0.999999
763.304456	1.000119
763.630931	0.999833
763.957359	1.000054
764.283740	1.000940
764.610074	0.999867
764.936362	1.000789
765.262602	1.000063
765.588796	1.000582
765.914943	1.001693
766.241044	0.999581
766.567097	1.000684
766.893104	1.001400
767.219064	0.999980
767.544978	1.000721
767.870845	1.001083
768.196665	1.000302
768.522438	0.999620
768.848165	1.000974
769.173846	1.001170
769.499479	1.000329
769.825066	0.999955
770.150607	1.001906
770.476101	1.000088
770.801548	0.999685
771.126949	1.000159
771.452303	0.999300
771.777611	1.000305
772.102872	1.000248
772.428087	1.000258
772.753256	0.999575
773.078378	1.000261
773.403453	1.000435
773.728482	1.001562
774.053465	1.001030
774.378401	1.000746
774.703291	1.000611
775.028135	1.000638
775.352932	1.000457
775.677683	1.000119
776.002388	0.999169
776.327046	0.998009
776.651658	0.999614
776.976224	0.999231
777.300743	0.999957
777.625216	0.999168
777.949643	0.998887
778.274024	1.000803
778.598359	0.999110
778.922647	1.000746
779.246889	1.000586
779.571086	1.000929
779.895236	1.000210
780.219339	1.000354
780.543397	1.000357
780.867409	0.999895
781.191374	1.000392
781.515294	1.000950
781.839167	0.999813
782.162995	1.000995
782.486776	0.999794
782.810511	1.000291
783.134201	1.000053
783.457844	0.998939
783.781441	0.999365
784.104993	0.999814
784.428498	1.000173
784.751958	0.998800
785.075372	1.000675
785.398739	0.998621
785.722061	1.001344
786.045337	1.000052
786.368568	0.999953
786.691752	0.999667
787.014891	0.999302
787.337983	1.000038
787.661030	1.000073
787.984031	1.000487
788.306987	1.000488
788.629897	1.000188
788.952760	0.999033
789.275579	1.001011
789.598351	1.000250
789.921078	1.000491
790.243759	1.000571
790.566395	1.000620
790.888984	1.000469
791.211529	1.000558
791.534027	1.000190
791.856480	0.999979
792.178888	1.000052
792.501249	0.999607
792.823566	1.000650
793.145836	0.999783
793.468062	1.000274
793.790241	1.000489
794.112375	0.999225
794.434464	0.998253
794.756507	0.999144
795.078505	1.001147
795.400457	1.000401
795.722364	1.000875
796.044226	1.000142
796.366042	1.001027
796.687812	0.999559
797.009538	1.000966
797.331218	1.000544
797.652852	1.000479
797.974442	1.000463
798.295986	0.999528
798.617484	1.000001
798.938938	1.000780
799.260346	0.999937
799.581709	1.001349
799.903026	1.000709
800.224299	0.999664
800.545526	1.001493
800.866708	0.999068
801.187845	1.001149
801.508936	1.000759
801.829983	1.001162
802.150984	1.000239
802.471940	1.000610
802.792851	1.000341
803.113717	1.000307
803.434538	0.999782
803.755314	1.000802
804.076045	1.000480
804.396731	0.999980
804.717372	1.000258
805.037967	1.000202
805.358518	1.000162
805.679024	1.000763
805.999485	0.999984
806.319901	1.001463
806.640272	0.999846
806.960598	0.999740
807.280879	0.999922
807.601115	1.000708
807.921306	1.000736
808.241453	1.000508
808.561554	0.998657
808.881611	1.000147
809.201623	0.999923
809.521590	1.000463
809.841513	1.000391
810.161390	1.000942
810.481223	1.000333
810.801011	0.999660
811.120755	1.001142
811.440453	1.000739
811.760107	0.999634
812.079716	0.999206
812.399281	1.000215
812.718801	1.000434
813.038276	1.000091
813.357707	1.000596
813.677093	0.999289
813.996434	1.000923
814.315731	1.000977
814.634983	0.999832
814.954191	0.999150
815.273354	1.001026
815.592473	0.999267
815.911547	1.000298
816.230577	1.000053
816.549562	1.000222
816.868502	1.001174
817.187399	1.000801
817.506250	0.999519
817.825058	1.000562
818.143821	1.000940
818.462539	1.000098
818.781213	1.000265
819.099843	0.999045
819.418429	1.000734
819.736970	0.999414
820.055466	0.999907
820.373919	1.000498
820.692327	0.999757
821.010691	0.999940
821.329011	1.000307
821.647286	0.999064
821.965517	0.998802
822.283704	0.999298
822.601847	0.999472
822.919945	0.999094
823.237999	1.000049
823.556010	1.000804
823.873976	1.000402
824.191897	1.001709
824.509775	0.999992
824.827609	1.000236
825.145398	0.999855
825.463144	1.000983
825.780845	1.000324
826.098502	1.000371
826.416116	0.999819
826.733685	0.999914
827.051210	1.000098
827.368692	0.999475
827.686129	1.000043
828.003522	1.000934
828.320872	0.998303
828.638177	1.000474
828.955439	1.000206
829.272656	1.000472
829.589830	1.001489
829.906960	1.000220
830.224046	1.000099
830.541088	0.999645
830.858086	0.999332
831.175041	1.000205
831.491952	1.000048
831.808819	0.999910
832.125642	1.001366
832.442421	1.000182
832.759157	1.001452
833.075849	0.999700
833.392497	1.000945
833.709101	1.000014
834.025662	1.000987
834.342179	0.999793
834.658653	1.001294
834.975083	0.999880
835.291469	0.999449
835.607811	1.000381
835.924110	0.999438
836.240366	1.000972
836.556578	1.001991
836.872746	1.000253
837.188871	0.999078
837.504952	0.998741
837.820990	1.000896
838.136984	0.999204
838.452935	0.999465
838.768842	0.999991
839.084706	0.999994
839.400526	0.999489
839.716303	1.000358
840.032037	0.998719
840.347727	0.999558
840.663373	1.001041
840.978977	1.000418
841.294537	1.000456
841.610054	1.000927
841.925527	1.001419
842.240957	1.000663
842.556344	0.998452
842.871687	1.000245
843.186987	1.001205
843.502244	1.000207
843.817458	1.000388
844.132629	1.000968
844.447756	1.000512
844.762840	0.999975
845.077881	0.999733
845.392879	1.000903
845.707833	0.999971
846.022745	1.000080
846.337613	0.999660
846.652438	1.000797
846.967221	0.999771
847.281960	0.999147
847.596656	1.000440
847.911309	0.999920
848.225919	1.001482
848.540485	1.000518
848.855009	1.000040
849.169490	1.000272
849.483928	0.999922
849.798323	1.000632
850.112675	1.000647
850.426984	1.000816
850.741251	0.999994
851.055474	1.001257
851.369654	1.000504
851.683792	1.002233
851.997887	1.000032
852.311938	1.001030
852.625947	1.000892
852.939914	0.999123
853.253837	1.000750
853.567718	1.000063
853.881555	1.000947
854.195350	1.000054
854.509103	1.000037
854.822812	1.000263
855.136479	0.999991
855.450103	1.000135
855.763685	1.000303
856.077224	0.999627
856.390720	1.000218
856.704173	0.999805
857.017584	1.001005
857.330953	0.999884
857.644278	1.001566
857.957561	0.999778
858.270802	0.998524
858.584000	0.998917
858.897155	0.999744
859.210268	1.001064
859.523339	0.999312
859.836367	1.000206
860.149352	1.001552
860.462295	0.998623
860.775195	1.000309
861.088054	0.999250
861.400869	0.998766
861.713642	1.000445
862.026373	0.999815
862.339062	1.000025
862.651708	0.998902
862.964312	0.999624
863.276873	1.000361
863.589392	1.001255
863.901869	1.000638
864.214303	1.000288
864.526696	0.999999
864.839045	1.000179
865.151353	1.000752
865.463619	1.000909
865.775842	1.000114
866.088023	0.999654
866.400162	1.000329
866.712258	1.001285
867.024313	1.000409
867.336325	0.999282
867.648296	1.000404
867.960224	1.002245
868.272110	0.999979
868.583954	0.999967
868.895755	1.000291
869.207515	1.000346
869.519233	0.999851
869.830909	1.000076
870.142542	1.000034
870.454134	1.000850
870.765684	1.001414
871.077191	0.999388
871.388657	1.001838
871.700081	0.999605
872.011463	0.999307
872.322803	1.000555
872.634101	1.001023
872.945357	1.000991
873.256571	1.000496
873.567744	0.999588
873.878874	0.999243
874.189963	0.998481
874.501010	0.999368
874.812015	0.999542
875.122979	1.001633
875.433900	1.000796
875.744780	0.998739
876.055618	1.000724
876.366415	1.000960
876.677169	1.000119
876.987882	1.001498
877.298554	1.000453
877.609183	0.999628
877.919771	1.000503
878.230317	1.001032
878.540822	1.000794
878.851285	1.000143
879.161707	0.999625
879.472087	1.000447
879.782425	1.000308
880.092722	0.999985
880.402977	1.000219
880.713191	0.999508
881.023363	0.999505
881.333494	0.999300
881.643583	0.999961
881.953631	0.999875
882.263637	0.999853
882.573602	0.999478
882.883526	1.000604
883.193408	0.999170
883.503248	1.000220
883.813048	0.999582
884.122806	0.999805
884.432522	0.998936
884.742197	1.000645
885.051831	1.000387
885.361424	0.999985
885.670975	1.000382
885.980485	1.000862
886.289954	1.000156
886.599382	1.000953
886.908768	1.000434
887.218113	1.000662
887.527417	1.000952
887.836680	1.000709
888.145901	0.999985
888.455082	0.999936
888.764221	1.001216
889.073319	0.999201
889.382376	1.000012
889.691392	1.000429
890.000366	0.999325
890.309300	1.000891
890.618193	1.000762
890.927044	1.000497
891.235855	1.000141
891.544625	1.000014
891.853353	1.000914
892.162041	0.999865
892.470687	1.000106
892.779293	0.999919
893.087858	0.999799
893.396381	1.000147
893.704864	1.000269
894.013306	1.000017
894.321707	0.998979
894.630068	0.998061
894.938387	1.000862
895.246665	0.999570
895.554903	0.999963
895.863100	1.000674
896.171256	1.000748
896.479371	0.999948
896.787446	0.999546
897.095480	1.000741
897.403473	1.000020
897.711425	0.999997
898.019336	1.000572
898.327207	0.998594
898.635038	1.001156
898.942827	1.001138
899.250576	0.999962
899.558284	0.999140
899.865952	1.000024
900.173579	1.000352
900.481165	1.000001
900.788711	1.000368
901.096216	1.000017
901.403681	0.999291
901.711105	1.000683
902.018489	1.000149
902.325832	1.000419
902.633135	1.000878
902.940397	1.000288
903.247619	1.002272
903.554800	0.998883
903.861941	1.000024
904.169041	1.000833
904.476101	0.999639
904.783121	0.999608
905.090100	1.000950
905.397039	1.000712
905.703938	1.000705
906.010796	1.001402
906.317614	1.000646
906.624391	0.999592
906.931129	0.999850
907.237826	0.999946
907.544483	1.001638
907.851099	0.999101
908.157675	0.999886
908.464211	1.000458
908.770707	1.000455
909.077163	0.999506
909.383578	0.999664
909.689954	0.999570
909.996289	0.999454
910.302584	0.999798
910.608839	1.002160
910.915054	0.999025
911.221229	1.000103
911.527363	0.999871
911.833458	0.998679
912.139513	0.999964
912.445527	0.999411
912.751502	0.998720
913.057436	1.000311
913.363331	0.998809
913.669186	0.999970
913.975000	1.000076
914.280775	1.000480
914.586510	0.999938
914.892205	0.999412
915.197859	0.999777
915.503475	1.000084
915.809050	0.999161
916.114585	0.998083
916.420081	1.000161
916.725536	0.999954
917.030952	1.000451
917.336328	0.999828
917.641665	1.000226
917.946961	0.998794
918.252218	1.000030
918.557435	0.999801
918.862612	1.000626
919.167750	1.001106
919.472848	0.999847
919.777906	1.000675
920.082925	1.001057
920.387904	1.000642
920.692843	1.000410
920.997743	0.999340
921.302603	1.000488
921.607423	0.998757
921.912204	1.000055
922.216946	0.999477
922.521647	0.999733
922.826310	1.000184
923.130932	1.000690
923.435516	1.000510
923.740059	0.999265
924.044564	0.998823
924.349028	1.000102
924.653454	1.001059
924.957840	1.001835
925.262186	1.000090
925.566493	0.998411
925.870761	0.999778
926.174989	1.000801
926.479178	1.001259
926.783328	1.000764
927.087438	1.000882
927.391509	1.000126
927.695541	1.001094
927.999533	0.999961
928.303486	0.999994
928.607400	1.002277
928.911275	0.999197
929.215110	1.000079
929.518906	1.001273
929.822663	1.000052
930.126381	1.000858
930.430060	1.000281
930.733699	0.999683
931.037299	0.999766
931.340861	1.001046
931.644383	1.000556
931.947866	0.999901
932.251309	1.002039
932.554714	0.999967
932.858080	1.000812
933.161407	1.000763
933.464694	1.001236
933.767943	0.998640
934.071153	1.000888
934.374323	1.001755
934.677455	1.000055
934.980548	0.999903
935.283602	0.999263
935.586617	1.000245
935.889593	0.999238
936.192530	0.999968
936.495428	0.999867
936.798287	1.000285
937.101108	1.001595
937.403890	1.000138
937.706632	1.000493
938.009336	0.999518
938.312002	1.001567
938.614628	1.001015
938.917216	0.999932
939.219765	1.000555
939.522275	1.000269
939.824747	0.999760
940.127179	0.999113
940.429573	1.001509
940.731929	1.000261
941.034246	1.000885
941.336524	1.000013
941.638763	1.000382
941.940964	0.999962
942.243126	1.000419
942.545250	1.000035
942.847335	1.000689
943.149381	1.000450
943.451389	0.999182
943.753359	0.998602
944.055290	1.001273
944.357182	1.000482
944.659036	0.997927
944.960851	1.000289
945.262628	1.000145
945.564367	1.000256
945.866067	1.000598
946.167729	1.000580
946.469352	1.000316
946.770937	0.999180
947.072484	1.000374
947.373992	1.000188
947.675462	0.999990
947.976893	0.999798
948.278286	1.000437
948.579641	1.000101
948.880958	0.999160
949.182236	1.000760
949.483476	1.001228
949.784678	0.998819
950.085841	0.999394
950.386967	0.999891
950.688054	0.999111
950.989103	1.000620
951.290114	0.999316
951.591087	0.999807
951.892021	1.000162
952.192917	0.999699
952.493776	0.999816
952.794596	0.999845
953.095378	0.999473
953.396122	1.000541
953.696828	0.999176
953.997496	0.999820
954.298126	1.000834
954.598718	1.000764
954.899272	1.000763
955.199788	0.999331
955.500266	1.000611
955.800706	1.000404
956.101108	1.001370
956.401472	1.000529
956.701798	1.001241
957.002087	0.999618
957.302337	0.999424
957.602550	1.000807
957.902724	0.999248
958.202861	0.999133
958.502960	1.000461
958.803022	0.998372
959.103045	1.000784
959.403031	0.999465
959.702979	0.999317
960.002889	0.999719
960.302762	0.998097
960.602596	1.000693
960.902393	0.998946
961.202153	1.000725
961.501875	1.000502
961.801559	1.000103
962.101205	1.000399
962.400814	0.999758
962.700385	1.000540
962.999918	0.999476
963.299414	0.999700
963.598873	0.999406
963.898293	1.000257
964.197677	0.999334
964.497022	0.999796
964.796331	1.000339
965.095601	0.999697
965.394835	0.998992
965.694030	0.999305
965.993189	0.999894
966.292309	0.999446
966.591393	1.001616
966.890439	0.999888
967.189447	0.999853
967.488419	0.999951
967.787353	0.998882
968.086249	0.999677
968.385108	1.000943
968.683930	0.999028
968.982714	1.000649
969.281462	1.000721
969.580172	0.999976
969.878844	1.000841
970.177480	1.000267
970.476078	1.001431
970.774639	1.000742
971.073162	1.000546
971.371649	0.999863
971.670098	0.999626
971.968510	1.002250
972.266885	0.999451
972.565223	1.000221
972.863524	1.000070
973.161788	0.998392
973.460014	1.002213
973.758204	1.000762
974.056356	1.000458
974.354471	0.998461
974.652550	0.999655
974.950591	0.999574
975.248595	0.999616
975.546563	0.999990
975.844493	1.001420
976.142386	0.999826
976.440243	0.999858
976.738062	1.000203
977.035845	1.000636
977.333590	1.000411
977.631299	1.001553
977.928971	0.999919
978.226606	0.999538
978.524204	0.999486
978.821765	1.000544
979.119290	0.999722
979.416777	0.999119
979.714228	1.000166
980.011642	0.999618
980.309020	0.999659
980.606360	0.999918
980.903664	1.001985
981.200931	0.999026
981.498162	0.998664
981.795356	0.998926
982.092513	0.999924
982.389633	1.002210
982.686717	0.999066
982.983764	1.000573
983.280775	0.999865
983.577749	0.999621
983.874686	0.999834
984.171587	0.999751
984.468451	1.000589
984.765279	0.999927
985.062070	0.999823
985.358824	1.000402
985.655543	0.998485
985.952224	1.000546
986.248869	1.000140
986.545478	0.999550
986.842050	1.001871
987.138586	0.998171
987.435086	0.999902
987.731549	1.001576
988.027975	1.000354
988.324366	0.999689
988.620719	0.999691
988.917037	0.997736
989.213318	1.001038
989.509563	1.001564
989.805772	1.000662
990.101944	1.000784
990.398080	0.999064
990.694180	0.999105
990.990244	0.999487
991.286271	1.000084
991.582262	0.999772
991.878217	0.999507
992.174136	0.999973
992.470019	1.000462
992.765865	1.000010
993.061676	1.000113
993.357450	1.000844
993.653188	0.998156
993.948890	0.999262
994.244556	0.999809
994.540186	0.999545
994.835780	0.998262
995.131337	1.000279
995.426859	0.999378
995.722345	0.999858
996.017795	1.000259
996.313208	0.998860
996.608586	0.999865
996.903928	1.001115
997.199234	0.999475
997.494504	0.999683
997.789738	0.998925
998.084936	1.000775
998.380099	1.001080
998.675225	1.000035
998.970316	1.000684
999.265371	1.000756
999.560390	1.000675
999.855373	1.001363
1000.150320	0.999950
1000.445232	0.999698
1000.740108	0.999319
1001.034948	1.000545
1001.329752	1.001796
1001.624521	1.000594
1001.919254	0.999578
1002.213951	0.999626
1002.508613	1.000655
1002.803239	1.000093
1003.097829	1.000782
1003.392384	1.000453
1003.686903	0.998907
1003.981386	1.000266
1004.275834	1.001019
1004.570246	0.999940
1004.864623	1.000191
1005.158964	1.000937
1005.453270	0.999511
1005.747540	0.999377
1006.041775	0.999176
1006.335974	1.001977
1006.630138	0.999726
1006.924266	1.000946
1007.218359	1.001954
1007.512416	1.000282
1007.806438	1.001694
1008.100425	1.000311
1008.394376	1.000706
1008.688292	0.999832
1008.982172	1.002282
1009.276017	1.001516
1009.569827	1.000249
1009.863602	0.999499
1010.157341	1.000381
1010.451045	1.000168
1010.744714	1.001134
1011.038347	1.000025
1011.331945	1.000097
1011.625508	0.999200
1011.919036	0.999963
1012.212528	0.999534
1012.505986	0.999816
1012.799408	0.999348
1013.092795	1.000238
1013.386147	1.001023
1013.679464	1.000087
1013.972745	1.000004
1014.265992	0.998314
1014.559204	1.000149
1014.852380	1.000282
1015.145521	1.000602
1015.438628	1.000549
1015.731699	0.998607
1016.024736	1.000561
1016.317737	1.000142
1016.610703	0.998886
1016.903635	1.001796
1017.196531	0.999157
1017.489393	1.000580
1017.782219	0.999440
1018.075011	1.000048
1018.367768	0.999850
1018.660490	1.000280
1018.953177	1.000280
1019.245829	1.000280
