Dividing Wavelength (nm)	Counts (n)	Blue Motor Position (mm): 0.000000	Red Motor Position (mm): 48.500000	
326.493990	1.000037
326.888308	1.000037
327.282561	1.000037
327.676750	1.000254
328.070874	0.999734
328.464933	1.001211
328.858929	1.000298
329.252859	1.000061
329.646726	1.000885
330.040528	1.000813
330.434265	0.999463
330.827938	1.001230
331.221547	1.001115
331.615091	1.000108
332.008571	1.000988
332.401986	1.000013
332.795338	1.000088
333.188625	0.998540
333.581847	1.001917
333.975006	1.000795
334.368100	0.999246
334.761129	1.000456
335.154095	1.001136
335.546996	1.000619
335.939833	0.999846
336.332606	1.000176
336.725315	1.000691
337.117960	1.001942
337.510540	0.999643
337.903056	1.001131
338.295508	0.999039
338.687896	1.000980
339.080220	1.000125
339.472480	1.000802
339.864676	1.000286
340.256807	1.000572
340.648875	1.002627
341.040879	1.000404
341.432818	0.999501
341.824694	0.999032
342.216506	1.001305
342.608253	0.999581
342.999937	1.000320
343.391557	1.000115
343.783113	1.000685
344.174605	1.000042
344.566033	1.001268
344.957397	0.999545
345.348697	1.000366
345.739934	0.999217
346.131106	0.999766
346.522215	0.999827
346.913260	0.999621
347.304241	1.000273
347.695159	1.001006
348.086012	1.000044
348.476802	1.001086
348.867528	1.001289
349.258191	0.997755
349.648789	1.000835
350.039324	1.000455
350.429796	1.001265
350.820203	1.000444
351.210548	1.000732
351.600828	1.000541
351.991045	1.001002
352.381198	0.999658
352.771288	1.000938
353.161314	1.000501
353.551276	1.002145
353.941175	1.000369
354.331010	1.001913
354.720782	1.001174
355.110490	1.000728
355.500135	1.000860
355.889717	0.999102
356.279235	1.000334
356.668689	0.999226
357.058080	0.999470
357.447408	1.000885
357.836672	1.001091
358.225873	1.000075
358.615010	1.001483
359.004084	1.001027
359.393095	1.001262
359.782043	1.000641
360.170927	1.001124
360.559748	1.002077
360.948505	1.000369
361.337199	1.000234
361.725830	1.000303
362.114398	1.000646
362.502903	1.000510
362.891344	1.002212
363.279722	0.999995
363.668037	1.001831
364.056289	1.001032
364.444478	1.002017
364.832603	1.001055
365.220665	1.000091
365.608665	0.999644
365.996601	1.000156
366.384474	0.999666
366.772284	1.000139
367.160031	0.998819
367.547715	0.999311
367.935336	1.000085
368.322893	1.000701
368.710388	1.000179
369.097820	1.000314
369.485189	0.999741
369.872495	1.000906
370.259738	0.999530
370.646918	1.001801
371.034035	1.001171
371.421090	1.000689
371.808081	1.000391
372.195010	1.000072
372.581875	1.000084
372.968678	0.999993
373.355418	1.001292
373.742096	0.999684
374.128710	1.000585
374.515262	1.000366
374.901751	1.000438
375.288177	1.000399
375.674540	1.001201
376.060841	0.998673
376.447079	1.000657
376.833254	1.000432
377.219367	1.000569
377.605417	1.000797
377.991404	1.000751
378.377329	0.999059
378.763191	0.999843
379.148991	1.001012
379.534727	0.999981
379.920402	1.000513
380.306013	1.000089
380.691563	1.000616
381.077049	0.999532
381.462474	0.999925
381.847835	1.000995
382.233134	1.000163
382.618371	1.000010
383.003545	0.999627
383.388657	0.999815
383.773706	1.001061
384.158693	1.001135
384.543618	0.999666
384.928480	1.000858
385.313280	1.000164
385.698017	1.000700
386.082692	1.000729
386.467305	1.000610
386.851856	0.999150
387.236344	1.000041
387.620770	0.998836
388.005133	1.000468
388.389435	1.001218
388.773674	1.000048
389.157851	0.999986
389.541965	0.999689
389.926018	0.999962
390.310008	1.001388
390.693936	0.999654
391.077802	1.000549
391.461606	0.999974
391.845348	1.000621
392.229027	1.001620
392.612645	1.001158
392.996200	1.001895
393.379694	1.000087
393.763125	1.001765
394.146494	1.000284
394.529801	1.000318
394.913047	1.000760
395.296230	1.001038
395.679351	1.000079
396.062410	0.999818
396.445408	1.000350
396.828343	1.000924
397.211217	1.000558
397.594028	1.001161
397.976778	0.999677
398.359466	0.999916
398.742092	1.000744
399.124656	0.999967
399.507158	0.999841
399.889598	1.000858
400.271977	1.000448
400.654294	1.000565
401.036549	1.001334
401.418742	1.000606
401.800874	0.999240
402.182944	1.000083
402.564952	0.998540
402.946898	1.000661
403.328783	0.999744
403.710606	0.999585
404.092367	1.000132
404.474067	1.001007
404.855705	1.000243
405.237282	1.001434
405.618797	0.999824
406.000250	0.999373
406.381642	1.000661
406.762972	1.001044
407.144240	1.001174
407.525447	1.000438
407.906593	1.001382
408.287677	1.000381
408.668700	1.000545
409.049661	0.999939
409.430560	0.999661
409.811399	0.999219
410.192176	1.000012
410.572891	0.999704
410.953545	1.000423
411.334138	0.999102
411.714669	1.000439
412.095139	0.999589
412.475547	1.001343
412.855894	1.000605
413.236180	1.000613
413.616405	1.000247
413.996568	1.000852
414.376670	1.000815
414.756711	1.000025
415.136691	0.999548
415.516609	0.999947
415.896466	0.999775
416.276262	0.999449
416.655997	1.000729
417.035670	0.999253
417.415283	1.000912
417.794834	0.999725
418.174324	1.000375
418.553753	1.000544
418.933121	1.000226
419.312428	1.000256
419.691674	1.000130
420.070859	1.000024
420.449983	1.000471
420.829045	1.000856
421.208047	1.001142
421.586988	1.000141
421.965867	1.000629
422.344686	1.000505
422.723444	1.000152
423.102141	1.000926
423.480777	1.000131
423.859352	1.000818
424.237866	1.000735
424.616319	1.000344
424.994712	1.000450
425.373044	1.001333
425.751314	1.000393
426.129524	0.999861
426.507673	1.000720
426.885762	1.000503
427.263789	1.000598
427.641756	1.000710
428.019662	1.000960
428.397508	1.000860
428.775292	0.999637
429.153016	1.000962
429.530679	1.001157
429.908282	1.000753
430.285824	1.000646
430.663305	0.999698
431.040726	1.000521
431.418086	1.001531
431.795385	1.001063
432.172624	0.999876
432.549802	1.000914
432.926920	1.000836
433.303977	0.999883
433.680974	1.000871
434.057910	1.000184
434.434786	1.000596
434.811601	1.000147
435.188355	1.000472
435.565050	1.000205
435.941683	1.000157
436.318257	1.001273
436.694770	0.999381
437.071222	1.000483
437.447614	1.000244
437.823946	1.000941
438.200218	1.000571
438.576429	1.001134
438.952580	1.001562
439.328670	1.000042
439.704700	1.000614
440.080670	1.000086
440.456580	1.001223
440.832429	0.999688
441.208218	1.000723
441.583947	1.000530
441.959616	1.000406
442.335224	1.000336
442.710773	1.000882
443.086261	1.000080
443.461689	0.999909
443.837057	1.000119
444.212365	1.000584
444.587612	0.999724
444.962800	1.000026
445.337927	1.000176
445.712995	1.000447
446.088002	1.001324
446.462949	1.000507
446.837837	1.000416
447.212664	1.000914
447.587431	1.001078
447.962139	1.000845
448.336786	1.000260
448.711374	1.001054
449.085901	1.000690
449.460369	1.001182
449.834776	1.000331
450.209124	1.001019
450.583412	0.999858
450.957640	1.000325
451.331808	1.000439
451.705917	1.000310
452.079965	0.999777
452.453954	1.000813
452.827883	0.999839
453.201752	1.000645
453.575562	1.001051
453.949311	1.000898
454.323001	1.000739
454.696632	1.000569
455.070202	1.000225
455.443713	0.999818
455.817164	1.001379
456.190556	1.000133
456.563888	1.000322
456.937160	1.000559
457.310373	0.999603
457.683526	1.000668
458.056619	1.000424
458.429653	1.000986
458.802628	1.000319
459.175542	1.000648
459.548398	1.000152
459.921194	1.000532
460.293930	1.000758
460.666607	1.000155
461.039224	0.998987
461.411782	1.000130
461.784280	0.999939
462.156719	1.001185
462.529099	1.000639
462.901419	1.000892
463.273680	0.999745
463.645882	1.000364
464.018024	1.000740
464.390106	1.001364
464.762130	1.001538
465.134094	1.000688
465.505999	1.000771
465.877845	1.000119
466.249631	1.000262
466.621358	1.000268
466.993026	1.000346
467.364634	1.000267
467.736184	1.001190
468.107674	1.000267
468.479105	1.000003
468.850477	1.000944
469.221790	1.000748
469.593043	1.000598
469.964238	1.001262
470.335373	1.000160
470.706449	1.000652
471.077467	1.000776
471.448425	1.000472
471.819324	1.000759
472.190164	1.000534
472.560945	1.001020
472.931667	1.000312
473.302330	0.999643
473.672934	1.000516
474.043479	1.000711
474.413965	1.000044
474.784393	1.000738
475.154761	1.000721
475.525070	1.000229
475.895321	1.001066
476.265513	1.000541
476.635645	1.000641
477.005719	1.000553
477.375734	0.999989
477.745691	1.000565
478.115588	1.000997
478.485427	1.000915
478.855207	1.000214
479.224928	1.000520
479.594591	1.000200
479.964194	1.000544
480.333739	1.001060
480.703226	1.000752
481.072653	1.001485
481.442022	1.001298
481.811333	0.999987
482.180584	1.000909
482.549777	1.000227
482.918912	1.000542
483.287988	1.001235
483.657005	1.000217
484.025964	1.001190
484.394864	1.000959
484.763706	1.000899
485.132489	1.000637
485.501213	0.999994
485.869879	1.000644
486.238487	1.000831
486.607036	1.001164
486.975527	1.000061
487.343959	1.000142
487.712333	1.000782
488.080648	1.000449
488.448905	1.000566
488.817104	1.000763
489.185244	1.001130
489.553326	1.000870
489.921350	1.000687
490.289315	1.000558
490.657222	1.000598
491.025070	1.000525
491.392861	1.000648
491.760593	1.000838
492.128267	1.000495
492.495883	1.000865
492.863440	1.001008
493.230939	1.000730
493.598380	1.000247
493.965763	0.999992
494.333088	1.000590
494.700354	0.999860
495.067563	1.000857
495.434713	1.001417
495.801805	1.001621
496.168839	1.001031
496.535815	1.000266
496.902733	1.000806
497.269593	1.000190
497.636395	1.001104
498.003139	1.000262
498.369825	1.001267
498.736453	1.000476
499.103023	1.000284
499.469535	1.000366
499.835989	1.000514
500.202385	1.000993
500.568723	1.000791
500.935003	1.000684
501.301226	1.000935
501.667390	1.000224
502.033497	1.000991
502.399546	1.000774
502.765537	1.000306
503.131470	1.000177
503.497345	1.000484
503.863163	1.001311
504.228923	1.000576
504.594625	1.000502
504.960269	1.001490
505.325856	1.000173
505.691385	1.000471
506.056856	0.999814
506.422270	0.999918
506.787625	1.001497
507.152924	1.000541
507.518164	1.000136
507.883347	1.000748
508.248472	1.000012
508.613540	1.001111
508.978550	1.001133
509.343503	1.000114
509.708398	1.000821
510.073236	1.000967
510.438016	1.000667
510.802738	1.000821
511.167403	1.000173
511.532010	1.000444
511.896561	1.000609
512.261053	1.001615
512.625488	1.000693
512.989866	1.000455
513.354186	1.000381
513.718449	1.000616
514.082655	1.000923
514.446803	1.000747
514.810894	1.001156
515.174927	1.000772
515.538904	1.000521
515.902822	1.000629
516.266684	1.000797
516.630488	1.000859
516.994235	1.000807
517.357925	1.000549
517.721558	1.001088
518.085133	1.000561
518.448651	1.001109
518.812112	1.000683
519.175516	1.000435
519.538863	1.001224
519.902152	1.000327
520.265385	1.001000
520.628560	1.000876
520.991678	1.000806
521.354739	1.000755
521.717743	1.000822
522.080690	1.001098
522.443580	1.000193
522.806413	1.000205
523.169189	1.000648
523.531908	1.000188
523.894569	1.000526
524.257174	1.001088
524.619722	1.000764
524.982213	1.001087
525.344647	1.000683
525.707025	1.000131
526.069345	1.000081
526.431608	1.001145
526.793815	1.000868
527.155964	1.000249
527.518057	1.000542
527.880093	1.000200
528.242072	0.999973
528.603995	1.000033
528.965860	1.001453
529.327669	1.000381
529.689421	1.000616
530.051117	1.001140
530.412755	1.000688
530.774337	1.001133
531.135862	1.000605
531.497331	1.000293
531.858743	1.001483
532.220098	1.000524
532.581396	1.001013
532.942638	1.000658
533.303824	1.000856
533.664953	1.000685
534.026025	1.000303
534.387040	1.000136
534.747999	1.000953
535.108902	1.000944
535.469748	1.000857
535.830537	1.001085
536.191270	1.001333
536.551947	1.000255
536.912567	1.000645
537.273131	1.001927
537.633638	1.000211
537.994089	1.000457
538.354483	1.000314
538.714821	1.000935
539.075103	1.000477
539.435328	1.000984
539.795497	1.001212
540.155609	1.000253
540.515665	1.000777
540.875665	1.000494
541.235609	1.000507
541.595496	1.000716
541.955328	0.999921
542.315102	1.000752
542.674821	1.000553
543.034483	1.000509
543.394090	1.000419
543.753640	0.999821
544.113134	1.000727
544.472571	1.001082
544.831953	1.000685
545.191278	1.000246
545.550548	1.001489
545.909761	1.000464
546.268918	1.001255
546.628019	1.000829
546.987064	1.000510
547.346053	1.001011
547.704986	1.000504
548.063863	1.000769
548.422684	1.000357
548.781449	1.001398
549.140158	0.999786
549.498811	1.001463
549.857408	1.000794
550.215949	1.000858
550.574434	1.000573
550.932864	1.000333
551.291237	1.000674
551.649555	1.000596
552.007817	1.000908
552.366022	1.000402
552.724173	1.001327
553.082267	1.001181
553.440305	1.000870
553.798288	1.000740
554.156215	1.000659
554.514086	1.000669
554.871902	1.000587
555.229661	1.000195
555.587365	1.000269
555.945014	1.001238
556.302606	1.000359
556.660143	1.000574
557.017625	1.000730
557.375050	1.000542
557.732421	1.000059
558.089735	1.000654
558.446994	1.001516
558.804197	1.001089
559.161345	1.001223
559.518437	1.000871
559.875474	0.999877
560.232455	1.000735
560.589381	1.000524
560.946251	1.000487
561.303065	1.000361
561.659825	1.000907
562.016528	1.000724
562.373177	1.000415
562.729770	1.000274
563.086307	1.001219
563.442789	1.000366
563.799216	1.000015
564.155587	1.000425
564.511904	1.000293
564.868164	1.000008
565.224370	1.000484
565.580520	1.000748
565.936615	0.999995
566.292654	0.999558
566.648638	1.000291
567.004567	1.000117
567.360441	1.000712
567.716260	1.001242
568.072023	1.000440
568.427732	1.000297
568.783385	1.000692
569.138982	1.001184
569.494525	1.000482
569.850013	1.000848
570.205445	1.000726
570.560823	1.000817
570.916145	1.000010
571.271412	1.000737
571.626625	1.000353
571.981782	0.999769
572.336884	1.000709
572.691931	1.000509
573.046923	0.999961
573.401860	1.001083
573.756743	1.000508
574.111570	1.000661
574.466342	1.000440
574.821059	1.001015
575.175722	1.000595
575.530330	1.000518
575.884882	1.000970
576.239380	1.001145
576.593823	1.000461
576.948211	1.000832
577.302544	1.001109
577.656823	1.000345
578.011047	1.000538
578.365216	1.000911
578.719330	0.999475
579.073389	1.000789
579.427394	1.000930
579.781344	1.001006
580.135239	1.000389
580.489080	1.000532
580.842866	1.000461
581.196597	1.000127
581.550273	1.000312
581.903895	1.000954
582.257463	1.000432
582.610975	1.000884
582.964434	1.000516
583.317837	1.001848
583.671186	1.000287
584.024481	1.000989
584.377721	1.000246
584.730906	1.000630
585.084037	1.000731
585.437113	1.000886
585.790135	1.000222
586.143103	1.000066
586.496016	1.001519
586.848874	1.000483
587.201679	1.000492
587.554428	1.000538
587.907124	1.000475
588.259765	1.000189
588.612352	1.000965
588.964884	1.000142
589.317362	1.000613
589.669786	1.000516
590.022155	1.000324
590.374470	1.000412
590.726731	1.000192
591.078937	0.999905
591.431090	1.000023
591.783188	1.000586
592.135232	1.000092
592.487222	1.000524
592.839157	0.999893
593.191038	1.000882
593.542866	1.000865
593.894639	1.001319
594.246358	0.999223
594.598022	1.000016
594.949633	1.000354
595.301190	0.999690
595.652692	1.000643
596.004141	1.000905
596.355535	1.000430
596.706876	1.000016
597.058162	1.000551
597.409395	1.000510
597.760573	1.000655
598.111698	1.000417
598.462768	1.000480
598.813785	1.000201
599.164748	1.000655
599.515657	0.999873
599.866511	1.000168
600.217312	1.000149
600.568060	1.000818
600.918753	1.001004
601.269392	1.000597
601.619978	1.000275
601.970510	1.000483
602.320988	1.000903
602.671412	1.000054
603.021783	1.000810
603.372100	1.001404
603.722363	1.000889
604.072572	1.000218
604.422728	1.000678
604.772830	1.000164
605.122878	0.999988
605.472872	1.001055
605.822813	1.000022
606.172701	1.000097
606.522534	1.001395
606.872314	1.000645
607.222041	1.000310
607.571714	1.000746
607.921333	1.000179
608.270899	1.000216
608.620411	1.001322
608.969870	1.000638
609.319276	1.000202
609.668627	1.001001
610.017926	1.000291
610.367171	1.000355
610.716362	1.000033
611.065500	0.999979
611.414585	1.000465
611.763616	1.000738
612.112594	0.999980
612.461518	0.999906
612.810389	1.000733
613.159207	1.000381
613.507971	1.000071
613.856682	1.000701
614.205340	1.000814
614.553945	0.999841
614.902496	1.000767
615.250994	1.000917
615.599439	1.001443
615.947830	0.999673
616.296169	1.000323
616.644454	1.000240
616.992686	1.000278
617.340864	0.999445
617.688990	1.000657
618.037063	1.000858
618.385082	1.000056
618.733048	1.000543
619.080961	1.000865
619.428821	1.001195
619.776628	1.000375
620.124382	1.000025
620.472083	0.999331
620.819731	1.001237
621.167326	1.000451
621.514868	0.999798
621.862357	1.000272
622.209793	1.000811
622.557176	0.998785
622.904506	1.000383
623.251783	0.999647
623.599007	1.001563
623.946179	1.000572
624.293297	1.000537
624.640363	1.000358
624.987376	0.999641
625.334336	1.000851
625.681243	0.999914
626.028097	1.001068
626.374899	1.000989
626.721647	1.000324
627.068343	1.001254
627.414987	1.000319
627.761577	1.000029
628.108115	0.999809
628.454600	1.000983
628.801032	1.000019
629.147412	1.000612
629.493739	1.000061
629.840014	1.000394
630.186236	1.000934
630.532405	1.000334
630.878521	1.000564
631.224585	1.000781
631.570597	1.000078
631.916556	0.999952
632.262462	1.000929
632.608316	1.000610
632.954117	0.999982
633.299866	1.000626
633.645562	1.000855
633.991206	1.000948
634.336797	1.001397
634.682336	1.000350
635.027823	1.000741
635.373257	1.001144
635.718639	1.000600
636.063968	0.999994
636.409245	0.999986
636.754470	1.001020
637.099642	1.000962
637.444762	1.000717
637.789829	1.000451
638.134845	1.000347
638.479808	1.000638
638.824719	1.000986
639.169577	1.000393
639.514383	1.000374
639.859137	1.000084
640.203839	1.001363
640.548489	1.000541
640.893086	1.000970
641.237632	1.000430
641.582125	0.999994
641.926566	1.000001
642.270955	1.000186
642.615292	1.000146
642.959576	1.001154
643.303809	1.000695
643.647990	1.000055
643.992118	1.000387
644.336195	1.001316
644.680219	1.000863
645.024192	1.000624
645.368112	1.000659
645.711981	1.000337
646.055797	1.000779
646.399562	1.000223
646.743274	0.998783
647.086935	0.999813
647.430544	1.000519
647.774101	1.000331
648.117606	1.001011
648.461059	0.999262
648.804460	0.999918
649.147810	1.000551
649.491108	1.000773
649.834354	1.000026
650.177548	1.000915
650.520690	1.001203
650.863781	1.000269
651.206820	1.000475
651.549807	1.000530
651.892742	1.000239
652.235626	1.000220
652.578458	1.001078
652.921238	0.999805
653.263967	1.001028
653.606644	1.001046
653.949269	1.000349
654.291843	1.000289
654.634365	1.000347
654.976836	1.000740
655.319255	1.000371
655.661622	1.000774
656.003938	1.000770
656.346203	1.000835
656.688416	1.000509
657.030577	1.001576
657.372687	1.000289
657.714746	0.999808
658.056753	1.000500
658.398708	1.001411
658.740612	1.000539
659.082465	1.001134
659.424266	1.001106
659.766016	0.999706
660.107715	0.999717
660.449362	1.000427
660.790958	0.999939
661.132503	0.998696
661.473996	1.001186
661.815438	1.000572
662.156829	1.000052
662.498168	1.001086
662.839456	1.000365
663.180693	1.001439
663.521879	1.001033
663.863013	1.000859
664.204097	1.000766
664.545129	1.000310
664.886110	1.000265
665.227040	1.000621
665.567918	1.000474
665.908746	1.000712
666.249522	0.999720
666.590248	1.000553
666.930922	1.000538
667.271545	1.000023
667.612118	1.000550
667.952639	1.000554
668.293109	1.000812
668.633528	1.000492
668.973896	1.000700
669.314213	0.999948
669.654480	1.001068
669.994695	1.000035
670.334859	1.000170
670.674973	0.999870
671.015035	1.000372
671.355047	1.000273
671.695008	1.000258
672.034918	0.999775
672.374777	1.001011
672.714585	1.000580
673.054342	1.000849
673.394049	1.000615
673.733705	0.999816
674.073310	0.999605
674.412864	1.001089
674.752368	0.999870
675.091820	1.000876
675.431223	0.999786
675.770574	1.000267
676.109875	1.000673
676.449125	1.000162
676.788324	1.000006
677.127473	1.001506
677.466571	1.000100
677.805619	1.000672
678.144616	1.001161
678.483562	1.000048
678.822458	1.000237
679.161303	1.002105
679.500098	0.999503
679.838842	1.001499
680.177535	1.000910
680.516179	1.000768
680.854771	0.999887
681.193314	1.001104
681.531805	1.000769
681.870247	1.000406
682.208638	1.000362
682.546978	1.000266
682.885268	0.999858
683.223508	1.001101
683.561697	0.999134
683.899836	1.000919
684.237925	1.001176
684.575963	1.000511
684.913951	1.000298
685.251889	1.000606
685.589776	1.000180
685.927614	1.000835
686.265401	1.000438
686.603137	1.000716
686.940824	1.000870
687.278460	0.999938
687.616046	1.000292
687.953582	0.999751
688.291068	0.999853
688.628504	1.001318
688.965889	0.999922
689.303224	0.999626
689.640510	1.001045
689.977745	1.000374
690.314930	1.001894
690.652065	1.001344
690.989150	1.000831
691.326185	1.001054
691.663170	0.999790
692.000105	1.000301
692.336990	1.000632
692.673825	1.000793
693.010610	1.001203
693.347345	0.999331
693.684030	1.000478
694.020665	1.001554
694.357251	1.001073
694.693786	1.000714
695.030272	1.001378
695.366707	1.000655
695.703093	1.000756
696.039429	1.000817
696.375716	0.999795
696.711952	1.000741
697.048139	1.001249
697.384276	1.000673
697.720363	0.999409
698.056400	1.000066
698.392388	0.999929
698.728326	1.001642
699.064214	1.001118
699.400053	1.001608
699.735842	1.001115
700.071581	1.000981
700.407270	1.000759
700.742910	1.001532
701.078501	1.000905
701.414042	1.000235
701.749533	1.000119
702.084974	0.999927
702.420366	0.999281
702.755709	1.000413
703.091002	1.000660
703.426246	1.000715
703.761440	1.001504
704.096584	1.000660
704.431679	1.000975
704.766725	0.999628
705.101721	1.000022
705.436668	1.000996
705.771565	1.000576
706.106413	1.000299
706.441212	1.000123
706.775961	1.000298
707.110661	1.000297
707.445311	1.000473
707.779913	1.001054
708.114465	1.000987
708.448967	1.000725
708.783421	1.000469
709.117825	1.000393
709.452180	1.000963
709.786485	0.999774
710.120742	0.999333
710.454949	1.000840
710.789107	1.000326
711.123216	1.000116
711.457275	1.000776
711.791286	0.999854
712.125247	0.999992
712.459159	0.999522
712.793023	1.000698
713.126837	1.001551
713.460602	1.000580
713.794318	1.000762
714.127985	1.000047
714.461602	1.000817
714.795171	0.999598
715.128691	0.999910
715.462162	1.001015
715.795584	1.000399
716.128957	1.000485
716.462281	1.000468
716.795556	1.001123
717.128782	1.000526
717.461960	1.000862
717.795088	1.000443
718.128167	1.000507
718.461198	1.000774
718.794180	1.000822
719.127113	1.000530
719.459997	1.001423
719.792833	1.000937
720.125619	1.000245
720.458357	1.000915
720.791046	1.001107
721.123686	1.000644
721.456278	1.000231
721.788821	1.001279
722.121315	1.000565
722.453761	1.000347
722.786158	0.999762
723.118506	1.000722
723.450805	1.001037
723.783056	0.999661
724.115259	0.998946
724.447412	1.000850
724.779518	1.000141
725.111574	1.001168
725.443582	1.000590
725.775542	0.999829
726.107453	1.000500
726.439315	0.999931
726.771129	0.999999
727.102895	1.000244
727.434612	1.000198
727.766281	1.000190
728.097901	1.000035
728.429473	1.001857
728.760996	0.999083
729.092471	1.000330
729.423897	1.000789
729.755276	1.000591
730.086606	1.000617
730.417887	1.000385
730.749120	1.000625
731.080305	1.000086
731.411442	1.000621
731.742530	1.000922
732.073570	1.000743
732.404562	1.000504
732.735506	1.000706
733.066401	0.999404
733.397249	1.001487
733.728048	1.001054
734.058798	1.000794
734.389501	1.000258
734.720156	0.999014
735.050762	1.000656
735.381320	1.000300
735.711831	1.001857
736.042293	1.001765
736.372707	1.000773
736.703073	1.000088
737.033391	1.000936
737.363661	1.001176
737.693883	1.000865
738.024056	1.000851
738.354182	1.000155
738.684260	1.000427
739.014290	0.999970
739.344272	0.999777
739.674207	1.000215
740.004093	1.001472
740.333931	1.000521
740.663722	1.000810
740.993464	1.001052
741.323159	0.999911
741.652806	1.000381
741.982405	1.000193
742.311956	0.999812
742.641460	1.000411
742.970915	1.000523
743.300323	1.000858
743.629683	1.001017
743.958996	1.000306
744.288260	1.000032
744.617477	0.999915
744.946647	1.000124
745.275768	0.999627
745.604842	1.000500
745.933869	1.001185
746.262847	0.999649
746.591778	0.999255
746.920662	1.001248
747.249498	0.999946
747.578286	1.000112
747.907027	0.999843
748.235720	1.001303
748.564365	0.999422
748.892963	1.000386
749.221514	0.999794
749.550017	1.000486
749.878473	0.999639
750.206881	1.000023
750.535242	1.000945
750.863555	1.000634
751.191821	1.000396
751.520039	1.000103
751.848210	1.000149
752.176334	0.999449
752.504411	1.000462
752.832440	1.000700
753.160421	1.000078
753.488356	1.001120
753.816243	1.000422
754.144082	1.000110
754.471875	0.999812
754.799620	1.000514
755.127318	0.999269
755.454969	0.999932
755.782572	1.000258
756.110129	1.001018
756.437638	1.000080
756.765100	0.999397
757.092515	1.000137
757.419882	1.001645
757.747203	1.000963
758.074477	0.999249
758.401703	1.000813
758.728882	1.000466
759.056014	1.000317
759.383099	1.000198
759.710138	0.999901
760.037129	1.000509
760.364073	1.000931
760.690970	1.000535
761.017820	1.000661
761.344623	1.001230
761.671379	0.999440
761.998088	1.000050
762.324751	1.000952
762.651366	1.000823
762.977935	1.000776
763.304456	0.999924
763.630931	1.000149
763.957359	1.000076
764.283740	1.001663
764.610074	0.999888
764.936362	1.000271
765.262602	0.999614
765.588796	0.999792
765.914943	1.001931
766.241044	1.001197
766.567097	1.002164
766.893104	1.000378
767.219064	1.000577
767.544978	1.000148
767.870845	1.001609
768.196665	1.001051
768.522438	1.000440
768.848165	1.000376
769.173846	1.000688
769.499479	1.001531
769.825066	0.999614
770.150607	1.001456
770.476101	0.999891
770.801548	0.999301
771.126949	1.000165
771.452303	0.998836
771.777611	1.000176
772.102872	1.001191
772.428087	0.998449
772.753256	0.999950
773.078378	0.999768
773.403453	0.999559
773.728482	1.001816
774.053465	1.000870
774.378401	1.000133
774.703291	1.000482
775.028135	1.000281
775.352932	1.000255
775.677683	0.999682
776.002388	1.000106
776.327046	0.998873
776.651658	1.001039
776.976224	1.000514
777.300743	0.999481
777.625216	0.998819
777.949643	0.999636
778.274024	1.000020
778.598359	1.000852
778.922647	1.000454
779.246889	1.000006
779.571086	1.000866
779.895236	1.000248
780.219339	1.000053
780.543397	1.001237
780.867409	1.001158
781.191374	0.999805
781.515294	1.000749
781.839167	0.999289
782.162995	1.001935
782.486776	0.999769
782.810511	1.000073
783.134201	0.999192
783.457844	1.000917
783.781441	0.999724
784.104993	1.000163
784.428498	1.000591
784.751958	1.001102
785.075372	1.001081
785.398739	1.000299
785.722061	1.001103
786.045337	1.000132
786.368568	1.000674
786.691752	1.000653
787.014891	1.000163
787.337983	0.999003
787.661030	1.000908
787.984031	1.001763
788.306987	0.999675
788.629897	1.000475
788.952760	0.999473
789.275579	1.000483
789.598351	0.999483
789.921078	1.001077
790.243759	0.999511
790.566395	1.000096
790.888984	1.000358
791.211529	1.000867
791.534027	1.000757
791.856480	1.000570
792.178888	1.000351
792.501249	1.001253
792.823566	1.000926
793.145836	0.999154
793.468062	1.000107
793.790241	1.000076
794.112375	0.999697
794.434464	0.999403
794.756507	1.000282
795.078505	1.001872
795.400457	1.000474
795.722364	1.000407
796.044226	0.999566
796.366042	0.999912
796.687812	0.999453
797.009538	1.000624
797.331218	0.999397
797.652852	1.001588
797.974442	1.000452
798.295986	0.999378
798.617484	0.999953
798.938938	1.001074
799.260346	0.998778
799.581709	1.002081
799.903026	1.000624
800.224299	0.999542
800.545526	0.999981
800.866708	0.999456
801.187845	1.001048
801.508936	1.001188
801.829983	1.000884
802.150984	0.998314
802.471940	1.000461
802.792851	0.999588
803.113717	1.000174
803.434538	1.000469
803.755314	1.000723
804.076045	1.000950
804.396731	0.999495
804.717372	1.000856
805.037967	1.000325
805.358518	1.001068
805.679024	1.000887
805.999485	0.999631
806.319901	1.001987
806.640272	1.000428
806.960598	1.000090
807.280879	1.000178
807.601115	1.001406
807.921306	1.000657
808.241453	1.000044
808.561554	0.999032
808.881611	1.000500
809.201623	1.001610
809.521590	0.999924
809.841513	1.000069
810.161390	1.000411
810.481223	1.000842
810.801011	0.999876
811.120755	1.000674
811.440453	1.000427
811.760107	0.999876
812.079716	0.999506
812.399281	1.000183
812.718801	1.000281
813.038276	1.000621
813.357707	1.000459
813.677093	0.999639
813.996434	1.001324
814.315731	1.001252
814.634983	0.999554
814.954191	0.999510
815.273354	1.000785
815.592473	0.999344
815.911547	1.000017
816.230577	0.999579
816.549562	0.999784
816.868502	1.002595
817.187399	1.001604
817.506250	1.000814
817.825058	1.000873
818.143821	1.001427
818.462539	0.999371
818.781213	1.000570
819.099843	0.999973
819.418429	1.000160
819.736970	1.001701
820.055466	1.000558
820.373919	0.999837
820.692327	0.999366
821.010691	1.000441
821.329011	1.000954
821.647286	0.999632
821.965517	0.999955
822.283704	1.001528
822.601847	1.001792
822.919945	1.001189
823.237999	1.000379
823.556010	1.000456
823.873976	1.001162
824.191897	1.001367
824.509775	1.001182
824.827609	1.000042
825.145398	1.000212
825.463144	1.001212
825.780845	1.000907
826.098502	1.000954
826.416116	1.000778
826.733685	1.000911
827.051210	0.999770
827.368692	0.999624
827.686129	1.000573
828.003522	1.000673
828.320872	0.999756
828.638177	1.000052
828.955439	1.000421
829.272656	1.000712
829.589830	1.000931
829.906960	1.000789
830.224046	0.999737
830.541088	1.000434
830.858086	1.000348
831.175041	1.000104
831.491952	0.999978
831.808819	1.000872
832.125642	1.001025
832.442421	0.999105
832.759157	1.001051
833.075849	1.000146
833.392497	1.000005
833.709101	1.000652
834.025662	1.000350
834.342179	1.001042
834.658653	1.000074
834.975083	1.000716
835.291469	0.998836
835.607811	1.000202
835.924110	0.999154
836.240366	1.000761
836.556578	1.000821
836.872746	1.000412
837.188871	1.001038
837.504952	0.999146
837.820990	1.001445
838.136984	0.999735
838.452935	0.999501
838.768842	1.000390
839.084706	1.000766
839.400526	1.000478
839.716303	1.001049
840.032037	1.000257
840.347727	1.000498
840.663373	1.001497
840.978977	0.999737
841.294537	1.000291
841.610054	1.000894
841.925527	1.001307
842.240957	1.000419
842.556344	1.000016
842.871687	1.000476
843.186987	1.001582
843.502244	1.000203
843.817458	1.000419
844.132629	0.998893
844.447756	1.001123
844.762840	1.001217
845.077881	1.000124
845.392879	1.000395
845.707833	1.000514
846.022745	1.000033
846.337613	1.000446
846.652438	1.001460
846.967221	0.999293
847.281960	1.000063
847.596656	1.001057
847.911309	0.999597
848.225919	1.000935
848.540485	0.999884
848.855009	1.000473
849.169490	0.999699
849.483928	1.000421
849.798323	1.000610
850.112675	1.000683
850.426984	0.999691
850.741251	1.000124
851.055474	1.000139
851.369654	0.999518
851.683792	1.001879
851.997887	1.000015
852.311938	1.001026
852.625947	1.001522
852.939914	1.000767
853.253837	1.000805
853.567718	1.001851
853.881555	1.000148
854.195350	0.998770
854.509103	1.001060
854.822812	1.000155
855.136479	1.000727
855.450103	1.000141
855.763685	0.999894
856.077224	1.000192
856.390720	1.000696
856.704173	1.001738
857.017584	0.999840
857.330953	0.999072
857.644278	1.001174
857.957561	1.000430
858.270802	1.000172
858.584000	1.000238
858.897155	1.000125
859.210268	1.001466
859.523339	1.000037
859.836367	1.000382
860.149352	1.000393
860.462295	0.998761
860.775195	1.000573
861.088054	0.999054
861.400869	0.999185
861.713642	1.000293
862.026373	0.999104
862.339062	1.000920
862.651708	0.998834
862.964312	0.999960
863.276873	1.000733
863.589392	1.000379
863.901869	1.001290
864.214303	1.000452
864.526696	1.001008
864.839045	1.000775
865.151353	0.999091
865.463619	1.000516
865.775842	0.998965
866.088023	0.999881
866.400162	1.001234
866.712258	0.999983
867.024313	1.000961
867.336325	0.998576
867.648296	1.000126
867.960224	1.002619
868.272110	1.000751
868.583954	1.001052
868.895755	0.999701
869.207515	1.000283
869.519233	1.000230
869.830909	1.000768
870.142542	1.000157
870.454134	0.999947
870.765684	1.001552
871.077191	0.999226
871.388657	1.001530
871.700081	1.000127
872.011463	1.000059
872.322803	1.000462
872.634101	1.000600
872.945357	0.999320
873.256571	1.000984
873.567744	1.000357
873.878874	1.000817
874.189963	0.999373
874.501010	0.999651
874.812015	1.000404
875.122979	1.002792
875.433900	1.000845
875.744780	1.000681
876.055618	0.999927
876.366415	1.000419
876.677169	0.999617
876.987882	1.000629
877.298554	1.001211
877.609183	1.001429
877.919771	1.000776
878.230317	1.000932
878.540822	1.000441
878.851285	1.000288
879.161707	0.999841
879.472087	1.000570
879.782425	0.999800
880.092722	1.000262
880.402977	0.999739
880.713191	1.001969
881.023363	1.001676
881.333494	1.000349
881.643583	1.001487
881.953631	1.001071
882.263637	1.002083
882.573602	1.000205
882.883526	1.001815
883.193408	1.000719
883.503248	1.000295
883.813048	1.000564
884.122806	1.000863
884.432522	1.000915
884.742197	1.001539
885.051831	0.999817
885.361424	1.000122
885.670975	1.000260
885.980485	1.000451
886.289954	1.000633
886.599382	1.000353
886.908768	1.000747
887.218113	1.000889
887.527417	0.999898
887.836680	1.000553
888.145901	1.001351
888.455082	1.000865
888.764221	0.999860
889.073319	0.999066
889.382376	0.999813
889.691392	1.000893
890.000366	1.000652
890.309300	1.001133
890.618193	1.001111
890.927044	0.999832
891.235855	1.000072
891.544625	0.999121
891.853353	1.000104
892.162041	0.999806
892.470687	1.001041
892.779293	1.000508
893.087858	0.999700
893.396381	0.999727
893.704864	0.999785
894.013306	1.001205
894.321707	0.999700
894.630068	0.999741
894.938387	1.000894
895.246665	0.999749
895.554903	0.999689
895.863100	1.000451
896.171256	1.001266
896.479371	1.000743
896.787446	0.999530
897.095480	0.999331
897.403473	1.001590
897.711425	1.000298
898.019336	1.001101
898.327207	1.000158
898.635038	1.000458
898.942827	1.000580
899.250576	0.999890
899.558284	1.000358
899.865952	0.999493
900.173579	1.000490
900.481165	1.000130
900.788711	1.001101
901.096216	1.000644
901.403681	0.999256
901.711105	1.001077
902.018489	1.000273
902.325832	1.000176
902.633135	1.001141
902.940397	1.000588
903.247619	1.002152
903.554800	0.998902
903.861941	1.000194
904.169041	1.002106
904.476101	1.001401
904.783121	0.999944
905.090100	1.002263
905.397039	1.001132
905.703938	1.000718
906.010796	1.000770
906.317614	1.002559
906.624391	0.999641
906.931129	1.000177
907.237826	1.000700
907.544483	1.000180
907.851099	0.999183
908.157675	1.000615
908.464211	0.999366
908.770707	1.000122
909.077163	1.000473
909.383578	1.000033
909.689954	1.000434
909.996289	1.001017
910.302584	1.000340
910.608839	1.001412
910.915054	1.000005
911.221229	1.001088
911.527363	0.999243
911.833458	0.999537
912.139513	1.000335
912.445527	0.999621
912.751502	0.999389
913.057436	1.000040
913.363331	1.000176
913.669186	1.000593
913.975000	0.999003
914.280775	1.001133
914.586510	1.000008
914.892205	0.999795
915.197859	1.000261
915.503475	1.000444
915.809050	1.000331
916.114585	0.999626
916.420081	1.000897
916.725536	1.000906
917.030952	1.001773
917.336328	1.000499
917.641665	0.999814
917.946961	0.999705
918.252218	1.000768
918.557435	0.999927
918.862612	1.000954
919.167750	1.001096
919.472848	0.999868
919.777906	1.000403
920.082925	1.001193
920.387904	1.001006
920.692843	0.999951
920.997743	0.999566
921.302603	1.000101
921.607423	0.999713
921.912204	1.000000
922.216946	0.998927
922.521647	0.999630
922.826310	1.000661
923.130932	1.000093
923.435516	0.999297
923.740059	0.999682
924.044564	0.998878
924.349028	0.999502
924.653454	0.999958
924.957840	1.001576
925.262186	1.000946
925.566493	0.998891
925.870761	1.000044
926.174989	1.000249
926.479178	1.001522
926.783328	1.000662
927.087438	1.000592
927.391509	1.000035
927.695541	1.001815
927.999533	0.999653
928.303486	0.999694
928.607400	1.002374
928.911275	0.999428
929.215110	1.000331
929.518906	0.999754
929.822663	0.999910
930.126381	1.000542
930.430060	1.000854
930.733699	1.000317
931.037299	1.000387
931.340861	1.001604
931.644383	1.000071
931.947866	0.999528
932.251309	1.001818
932.554714	1.000827
932.858080	0.999803
933.161407	1.000037
933.464694	1.001492
933.767943	0.999590
934.071153	1.002011
934.374323	1.000492
934.677455	1.000068
934.980548	1.000469
935.283602	1.000373
935.586617	0.999698
935.889593	1.000058
936.192530	0.999843
936.495428	1.000463
936.798287	1.000059
937.101108	1.000967
937.403890	0.999811
937.706632	1.000258
938.009336	1.000201
938.312002	1.001301
938.614628	1.000406
938.917216	1.000144
939.219765	0.999012
939.522275	1.002249
939.824747	1.000455
940.127179	1.000209
940.429573	1.001018
940.731929	0.999559
941.034246	0.999502
941.336524	1.000113
941.638763	1.001024
941.940964	1.000071
942.243126	1.000316
942.545250	1.000060
942.847335	1.001403
943.149381	1.000935
943.451389	0.999300
943.753359	0.998595
944.055290	1.001788
944.357182	0.999943
944.659036	0.998930
944.960851	1.000723
945.262628	0.999872
945.564367	1.000040
945.866067	1.000913
946.167729	1.000554
946.469352	0.999893
946.770937	0.999372
947.072484	1.002525
947.373992	1.000683
947.675462	1.000837
947.976893	0.999764
948.278286	0.998185
948.579641	1.001100
948.880958	1.000310
949.182236	0.999266
949.483476	1.000054
949.784678	0.998960
950.085841	1.000636
950.386967	0.999931
950.688054	1.000322
950.989103	1.001064
951.290114	0.999226
951.591087	1.000919
951.892021	1.000732
952.192917	0.999688
952.493776	1.000227
952.794596	1.000121
953.095378	1.000111
953.396122	1.001191
953.696828	0.998620
953.997496	1.000105
954.298126	1.001180
954.598718	1.000101
954.899272	1.001801
955.199788	0.999715
955.500266	1.001237
955.800706	1.000678
956.101108	1.000389
956.401472	1.000276
956.701798	1.001543
957.002087	1.000564
957.302337	0.999778
957.602550	1.000511
957.902724	0.999987
958.202861	1.000770
958.502960	1.000771
958.803022	0.998242
959.103045	1.000910
959.403031	0.999787
959.702979	1.000768
960.002889	1.000085
960.302762	0.999164
960.602596	1.000144
960.902393	0.999620
961.202153	0.999674
961.501875	1.001602
961.801559	0.999029
962.101205	1.000784
962.400814	1.000146
962.700385	1.001102
962.999918	0.998724
963.299414	1.000470
963.598873	0.999759
963.898293	1.000121
964.197677	0.999261
964.497022	0.999092
964.796331	1.001695
965.095601	1.000567
965.394835	1.000524
965.694030	0.998568
965.993189	1.001153
966.292309	0.999145
966.591393	1.001580
966.890439	1.001138
967.189447	1.000766
967.488419	1.000697
967.787353	1.000492
968.086249	0.999358
968.385108	1.000025
968.683930	1.000793
968.982714	1.001257
969.281462	1.000029
969.580172	1.001177
969.878844	1.000712
970.177480	1.000268
970.476078	0.999854
970.774639	1.001098
971.073162	1.002162
971.371649	1.000545
971.670098	0.999725
971.968510	1.000993
972.266885	0.999121
972.565223	1.001300
972.863524	1.000065
973.161788	0.999466
973.460014	1.000438
973.758204	0.999359
974.056356	1.000164
974.354471	0.998472
974.652550	1.000559
974.950591	0.999897
975.248595	1.000910
975.546563	1.001197
975.844493	1.000543
976.142386	1.000776
976.440243	1.000979
976.738062	1.000840
977.035845	1.001351
977.333590	1.000094
977.631299	1.001669
977.928971	0.999492
978.226606	0.998631
978.524204	0.999243
978.821765	1.002119
979.119290	0.999294
979.416777	0.999805
979.714228	1.001176
980.011642	0.999132
980.309020	1.000553
980.606360	1.000526
980.903664	1.001253
981.200931	1.000201
981.498162	0.999572
981.795356	1.000412
982.092513	0.999111
982.389633	1.001496
982.686717	0.999364
982.983764	1.000672
983.280775	1.000909
983.577749	0.999297
983.874686	1.000794
984.171587	0.999575
984.468451	1.001917
984.765279	1.001409
985.062070	1.000263
985.358824	1.000384
985.655543	0.999896
985.952224	1.001037
986.248869	1.000541
986.545478	1.000333
986.842050	1.000981
987.138586	0.999498
987.435086	1.001636
987.731549	1.000926
988.027975	0.999146
988.324366	0.999237
988.620719	0.999000
988.917037	0.999528
989.213318	1.000237
989.509563	1.000931
989.805772	1.000607
990.101944	1.000266
990.398080	1.000102
990.694180	1.000126
990.990244	0.999831
991.286271	1.000346
991.582262	0.999519
991.878217	1.000049
992.174136	1.001211
992.470019	1.001137
992.765865	1.001208
993.061676	1.000172
993.357450	1.002024
993.653188	0.998716
993.948890	0.999708
994.244556	0.999853
994.540186	1.000256
994.835780	0.999080
995.131337	1.000510
995.426859	0.999705
995.722345	1.000924
996.017795	1.000266
996.313208	1.000304
996.608586	0.998588
996.903928	0.999934
997.199234	1.000521
997.494504	1.000767
997.789738	0.999278
998.084936	1.000503
998.380099	1.001427
998.675225	1.001409
998.970316	1.000420
999.265371	0.999651
999.560390	1.000434
999.855373	1.000087
1000.150320	1.000078
1000.445232	1.000406
1000.740108	0.999665
1001.034948	0.999628
1001.329752	1.001838
1001.624521	0.999826
1001.919254	1.000798
1002.213951	0.999861
1002.508613	1.000402
1002.803239	1.001445
1003.097829	1.000606
1003.392384	1.001414
1003.686903	0.998848
1003.981386	1.001363
1004.275834	1.002315
1004.570246	1.000619
1004.864623	1.001394
1005.158964	1.001679
1005.453270	0.998958
1005.747540	0.999832
1006.041775	0.999948
1006.335974	1.001094
1006.630138	1.001318
1006.924266	1.001336
1007.218359	1.002017
1007.512416	1.001388
1007.806438	1.001617
1008.100425	1.001654
1008.394376	1.000610
1008.688292	0.999750
1008.982172	1.002123
1009.276017	1.001905
1009.569827	0.999506
1009.863602	0.999479
1010.157341	1.001392
1010.451045	1.000689
1010.744714	1.000632
1011.038347	1.000375
1011.331945	1.000389
1011.625508	0.999062
1011.919036	1.000108
1012.212528	1.000908
1012.505986	0.999661
1012.799408	1.000858
1013.092795	1.001020
1013.386147	1.001224
1013.679464	1.000199
1013.972745	0.998593
1014.265992	0.998664
1014.559204	1.000544
1014.852380	0.999731
1015.145521	1.000928
1015.438628	1.000117
1015.731699	0.999347
1016.024736	1.000486
1016.317737	0.999744
1016.610703	1.000221
1016.903635	1.000476
1017.196531	1.000444
1017.489393	1.000662
1017.782219	1.000680
1018.075011	0.999846
1018.367768	1.000419
1018.660490	1.000829
1018.953177	1.000829
1019.245829	1.000829
