Dividing Wavelength (nm)	Counts (n)	Blue Motor Position (mm): 0.000000	Red Motor Position (mm): 46.300000	
326.493990	1.002102
326.888308	1.002102
327.282561	1.002102
327.676750	0.999213
328.070874	0.999888
328.464933	0.999229
328.858929	0.999653
329.252859	0.999077
329.646726	0.999461
330.040528	1.001722
330.434265	0.999411
330.827938	1.000469
331.221547	1.001352
331.615091	1.000534
332.008571	1.000224
332.401986	0.999454
332.795338	1.000034
333.188625	0.997767
333.581847	1.001084
333.975006	0.999821
334.368100	0.999525
334.761129	1.001146
335.154095	1.001314
335.546996	0.999261
335.939833	0.999770
336.332606	0.999557
336.725315	1.000561
337.117960	1.001529
337.510540	1.000010
337.903056	1.000420
338.295508	0.998698
338.687896	1.000893
339.080220	0.999986
339.472480	1.000419
339.864676	0.999992
340.256807	1.000126
340.648875	1.000822
341.040879	1.000375
341.432818	1.000348
341.824694	1.000273
342.216506	1.000930
342.608253	1.000512
342.999937	0.999890
343.391557	1.000682
343.783113	0.999841
344.174605	1.001640
344.566033	1.000769
344.957397	0.998528
345.348697	0.999634
345.739934	1.000265
346.131106	0.998988
346.522215	0.999482
346.913260	0.999357
347.304241	0.999990
347.695159	1.001518
348.086012	0.999188
348.476802	0.999956
348.867528	1.000982
349.258191	0.998893
349.648789	1.000788
350.039324	1.000098
350.429796	0.999851
350.820203	1.000844
351.210548	0.999926
351.600828	1.000282
351.991045	1.001277
352.381198	0.999658
352.771288	0.999488
353.161314	0.999715
353.551276	1.000986
353.941175	0.999886
354.331010	0.999904
354.720782	1.000149
355.110490	1.000063
355.500135	1.000494
355.889717	0.999666
356.279235	0.999993
356.668689	1.000473
357.058080	0.999875
357.447408	1.001679
357.836672	1.002323
358.225873	1.000490
358.615010	0.999585
359.004084	1.000863
359.393095	1.000744
359.782043	1.000462
360.170927	1.000928
360.559748	1.001313
360.948505	1.000240
361.337199	1.000094
361.725830	1.000916
362.114398	1.000252
362.502903	1.001125
362.891344	1.000907
363.279722	1.000663
363.668037	1.000745
364.056289	1.000390
364.444478	1.001302
364.832603	1.001324
365.220665	0.999960
365.608665	1.001661
365.996601	1.000538
366.384474	1.000521
366.772284	1.000113
367.160031	0.998987
367.547715	0.998715
367.935336	1.000553
368.322893	1.000171
368.710388	0.999812
369.097820	0.999088
369.485189	0.999398
369.872495	1.000160
370.259738	0.999049
370.646918	1.000966
371.034035	1.000576
371.421090	1.000036
371.808081	1.000563
372.195010	1.001190
372.581875	0.999647
372.968678	1.000763
373.355418	0.999367
373.742096	0.999503
374.128710	1.001281
374.515262	0.999790
374.901751	1.000229
375.288177	0.999635
375.674540	1.001485
376.060841	0.999317
376.447079	1.001391
376.833254	0.999938
377.219367	0.999409
377.605417	0.999762
377.991404	1.000251
378.377329	1.000072
378.763191	1.000010
379.148991	1.000439
379.534727	1.000318
379.920402	1.000032
380.306013	0.999730
380.691563	0.999864
381.077049	1.000026
381.462474	1.001259
381.847835	1.000032
382.233134	1.000004
382.618371	0.999367
383.003545	0.999998
383.388657	0.999496
383.773706	1.000706
384.158693	1.001123
384.543618	1.000255
384.928480	1.001104
385.313280	0.999646
385.698017	1.000072
386.082692	1.000463
386.467305	1.000709
386.851856	1.000770
387.236344	0.999663
387.620770	1.000076
388.005133	1.000663
388.389435	1.001711
388.773674	1.000205
389.157851	1.001120
389.541965	1.000400
389.926018	0.999361
390.310008	1.001384
390.693936	1.000514
391.077802	1.001058
391.461606	1.000439
391.845348	1.000903
392.229027	1.001867
392.612645	1.001139
392.996200	1.001833
393.379694	1.000813
393.763125	1.001209
394.146494	1.001190
394.529801	1.000552
394.913047	1.000508
395.296230	1.001019
395.679351	1.000661
396.062410	1.000276
396.445408	1.001388
396.828343	1.001053
397.211217	1.000835
397.594028	1.001440
397.976778	1.000487
398.359466	1.000766
398.742092	1.000733
399.124656	1.000326
399.507158	1.000883
399.889598	1.001112
400.271977	1.001013
400.654294	1.000725
401.036549	1.000930
401.418742	1.001261
401.800874	1.000090
402.182944	1.001288
402.564952	1.000887
402.946898	1.001584
403.328783	1.001449
403.710606	1.000546
404.092367	1.001031
404.474067	1.000867
404.855705	1.001132
405.237282	1.001205
405.618797	1.000442
406.000250	1.000197
406.381642	1.001030
406.762972	1.001094
407.144240	1.000898
407.525447	1.001054
407.906593	1.000970
408.287677	1.001423
408.668700	1.000439
409.049661	1.000196
409.430560	1.001121
409.811399	1.000663
410.192176	1.001113
410.572891	1.001293
410.953545	1.000184
411.334138	0.999915
411.714669	1.000692
412.095139	0.999982
412.475547	1.001737
412.855894	1.000780
413.236180	1.000853
413.616405	1.001159
413.996568	1.001827
414.376670	1.001433
414.756711	1.000214
415.136691	1.000345
415.516609	1.000936
415.896466	1.000862
416.276262	1.000502
416.655997	1.000813
417.035670	1.000969
417.415283	1.000869
417.794834	1.000976
418.174324	1.001071
418.553753	1.001221
418.933121	1.001015
419.312428	1.000840
419.691674	1.000563
420.070859	1.001062
420.449983	1.001119
420.829045	1.001141
421.208047	1.002008
421.586988	1.001916
421.965867	1.001149
422.344686	1.001952
422.723444	1.001352
423.102141	1.001456
423.480777	1.001382
423.859352	1.001401
424.237866	1.001483
424.616319	1.001198
424.994712	1.000766
425.373044	1.001583
425.751314	1.001544
426.129524	1.000440
426.507673	1.001622
426.885762	1.001625
427.263789	1.001097
427.641756	1.001783
428.019662	1.001563
428.397508	1.000847
428.775292	1.000958
429.153016	1.001540
429.530679	1.002183
429.908282	1.000973
430.285824	1.000743
430.663305	1.000143
431.040726	1.001177
431.418086	1.001808
431.795385	1.002106
432.172624	1.000627
432.549802	1.001004
432.926920	1.002033
433.303977	1.000270
433.680974	1.001466
434.057910	1.000872
434.434786	1.001645
434.811601	1.000166
435.188355	1.001395
435.565050	1.000751
435.941683	1.001418
436.318257	1.002395
436.694770	1.000701
437.071222	1.001942
437.447614	1.001183
437.823946	1.000569
438.200218	1.000559
438.576429	1.001725
438.952580	1.001556
439.328670	1.000637
439.704700	1.001192
440.080670	1.001833
440.456580	1.001654
440.832429	1.000388
441.208218	1.001060
441.583947	1.001685
441.959616	1.001783
442.335224	1.001266
442.710773	1.001896
443.086261	1.001110
443.461689	1.000644
443.837057	1.000986
444.212365	1.001307
444.587612	1.000891
444.962800	1.001059
445.337927	1.001811
445.712995	1.001412
446.088002	1.001274
446.462949	1.000883
446.837837	1.001799
447.212664	1.001431
447.587431	1.001057
447.962139	1.001175
448.336786	1.000959
448.711374	1.001738
449.085901	1.000026
449.460369	1.001725
449.834776	1.000275
450.209124	1.001436
450.583412	1.001039
450.957640	1.001779
451.331808	1.001294
451.705917	1.001133
452.079965	1.000619
452.453954	1.001341
452.827883	1.000821
453.201752	1.001306
453.575562	1.001614
453.949311	1.002016
454.323001	1.000554
454.696632	1.000461
455.070202	1.000917
455.443713	1.000550
455.817164	1.001298
456.190556	1.000993
456.563888	1.000641
456.937160	1.001622
457.310373	1.000925
457.683526	1.001069
458.056619	1.001317
458.429653	1.000951
458.802628	1.000321
459.175542	1.000692
459.548398	1.001555
459.921194	1.001096
460.293930	1.000769
460.666607	1.000566
461.039224	0.999950
461.411782	1.001836
461.784280	1.000198
462.156719	1.001527
462.529099	1.001113
462.901419	1.001211
463.273680	1.001438
463.645882	1.001498
464.018024	1.001693
464.390106	1.001428
464.762130	1.002094
465.134094	1.001743
465.505999	1.001274
465.877845	1.000778
466.249631	1.001542
466.621358	1.000874
466.993026	1.001475
467.364634	1.002141
467.736184	1.002361
468.107674	1.001408
468.479105	1.000758
468.850477	1.001428
469.221790	1.001693
469.593043	1.001860
469.964238	1.001758
470.335373	1.001145
470.706449	1.001330
471.077467	1.001979
471.448425	1.001778
471.819324	1.002579
472.190164	1.001443
472.560945	1.002084
472.931667	1.001247
473.302330	1.001425
473.672934	1.001932
474.043479	1.001944
474.413965	1.000803
474.784393	1.001902
475.154761	1.001112
475.525070	1.001375
475.895321	1.001353
476.265513	1.001361
476.635645	1.001030
477.005719	1.001617
477.375734	1.000855
477.745691	1.001242
478.115588	1.001535
478.485427	1.001470
478.855207	1.001451
479.224928	1.001186
479.594591	1.002098
479.964194	1.001531
480.333739	1.001320
480.703226	1.001280
481.072653	1.001850
481.442022	1.001557
481.811333	1.000501
482.180584	1.002047
482.549777	1.001215
482.918912	1.001038
483.287988	1.001815
483.657005	1.001408
484.025964	1.002178
484.394864	1.001749
484.763706	1.002115
485.132489	1.002216
485.501213	1.001904
485.869879	1.001182
486.238487	1.002046
486.607036	1.002054
486.975527	1.001261
487.343959	1.001175
487.712333	1.001435
488.080648	1.001213
488.448905	1.001297
488.817104	1.001809
489.185244	1.001770
489.553326	1.001609
489.921350	1.000921
490.289315	1.002009
490.657222	1.001547
491.025070	1.002009
491.392861	1.002154
491.760593	1.002377
492.128267	1.001593
492.495883	1.001641
492.863440	1.001694
493.230939	1.001392
493.598380	1.002544
493.965763	1.001722
494.333088	1.002366
494.700354	1.001446
495.067563	1.001398
495.434713	1.001535
495.801805	1.002577
496.168839	1.002040
496.535815	1.001159
496.902733	1.001333
497.269593	1.001362
497.636395	1.002148
498.003139	1.001831
498.369825	1.002108
498.736453	1.001747
499.103023	1.001159
499.469535	1.001224
499.835989	1.001679
500.202385	1.000971
500.568723	1.001946
500.935003	1.002244
501.301226	1.001953
501.667390	1.001457
502.033497	1.001917
502.399546	1.001914
502.765537	1.000731
503.131470	1.001488
503.497345	1.001194
503.863163	1.002821
504.228923	1.002072
504.594625	1.001522
504.960269	1.002123
505.325856	1.001554
505.691385	1.001418
506.056856	1.001689
506.422270	1.001549
506.787625	1.001840
507.152924	1.001632
507.518164	1.001437
507.883347	1.002029
508.248472	1.001288
508.613540	1.001621
508.978550	1.002172
509.343503	1.001652
509.708398	1.002115
510.073236	1.002113
510.438016	1.001816
510.802738	1.001966
511.167403	1.001746
511.532010	1.001889
511.896561	1.001092
512.261053	1.002624
512.625488	1.001506
512.989866	1.001367
513.354186	1.001482
513.718449	1.001859
514.082655	1.001596
514.446803	1.001847
514.810894	1.001499
515.174927	1.001440
515.538904	1.001530
515.902822	1.001578
516.266684	1.001741
516.630488	1.002392
516.994235	1.000941
517.357925	1.001563
517.721558	1.001858
518.085133	1.001246
518.448651	1.002286
518.812112	1.001286
519.175516	1.001051
519.538863	1.001996
519.902152	1.001602
520.265385	1.001173
520.628560	1.001213
520.991678	1.001797
521.354739	1.002408
521.717743	1.001698
522.080690	1.001773
522.443580	1.001632
522.806413	1.002047
523.169189	1.001500
523.531908	1.001711
523.894569	1.001286
524.257174	1.001463
524.619722	1.002368
524.982213	1.001356
525.344647	1.002414
525.707025	1.001135
526.069345	1.000878
526.431608	1.001558
526.793815	1.001874
527.155964	1.001874
527.518057	1.002073
527.880093	1.002112
528.242072	1.001588
528.603995	1.001504
528.965860	1.002393
529.327669	1.001500
529.689421	1.001048
530.051117	1.001744
530.412755	1.001293
530.774337	1.001870
531.135862	1.001521
531.497331	1.001254
531.858743	1.002085
532.220098	1.001344
532.581396	1.001838
532.942638	1.001993
533.303824	1.001783
533.664953	1.001707
534.026025	1.001479
534.387040	1.001598
534.747999	1.002062
535.108902	1.001676
535.469748	1.001423
535.830537	1.001824
536.191270	1.001643
536.551947	1.001626
536.912567	1.001636
537.273131	1.002793
537.633638	1.001706
537.994089	1.001695
538.354483	1.001567
538.714821	1.001979
539.075103	1.001471
539.435328	1.001504
539.795497	1.001398
540.155609	1.001873
540.515665	1.002115
540.875665	1.001005
541.235609	1.001947
541.595496	1.001562
541.955328	1.001028
542.315102	1.001870
542.674821	1.001299
543.034483	1.001416
543.394090	1.000907
543.753640	1.001078
544.113134	1.001591
544.472571	1.002037
544.831953	1.001749
545.191278	1.001358
545.550548	1.001955
545.909761	1.001191
546.268918	1.002056
546.628019	1.001663
546.987064	1.000805
547.346053	1.001582
547.704986	1.001688
548.063863	1.001774
548.422684	1.001761
548.781449	1.001182
549.140158	1.000805
549.498811	1.001327
549.857408	1.001853
550.215949	1.001568
550.574434	1.001691
550.932864	1.001709
551.291237	1.001736
551.649555	1.002157
552.007817	1.001388
552.366022	1.001033
552.724173	1.002377
553.082267	1.001319
553.440305	1.001677
553.798288	1.001822
554.156215	1.001164
554.514086	1.001813
554.871902	1.000805
555.229661	1.001449
555.587365	1.001468
555.945014	1.001966
556.302606	1.001005
556.660143	1.001802
557.017625	1.001459
557.375050	1.001565
557.732421	1.001481
558.089735	1.001953
558.446994	1.001989
558.804197	1.002072
559.161345	1.002392
559.518437	1.002516
559.875474	1.000746
560.232455	1.001361
560.589381	1.001795
560.946251	1.000010
561.303065	1.000905
561.659825	1.001412
562.016528	1.001168
562.373177	1.001914
562.729770	1.001289
563.086307	1.001607
563.442789	1.000978
563.799216	1.001616
564.155587	1.001238
564.511904	1.000888
564.868164	1.000911
565.224370	1.001269
565.580520	1.001420
565.936615	1.000477
566.292654	1.001194
566.648638	1.001810
567.004567	1.000606
567.360441	1.001546
567.716260	1.001782
568.072023	1.000847
568.427732	1.001033
568.783385	1.001872
569.138982	1.001032
569.494525	1.001067
569.850013	1.001149
570.205445	1.000901
570.560823	1.001744
570.916145	1.000403
571.271412	1.001636
571.626625	1.001522
571.981782	1.001544
572.336884	1.002117
572.691931	1.001681
573.046923	1.001087
573.401860	1.001918
573.756743	1.001301
574.111570	1.001587
574.466342	1.001238
574.821059	1.001483
575.175722	1.001451
575.530330	1.001828
575.884882	1.001407
576.239380	1.001979
576.593823	1.001364
576.948211	1.000770
577.302544	1.001249
577.656823	1.001167
578.011047	1.002104
578.365216	1.001504
578.719330	1.000684
579.073389	1.001253
579.427394	1.001555
579.781344	1.002127
580.135239	1.000429
580.489080	1.001449
580.842866	1.001527
581.196597	1.001672
581.550273	1.001552
581.903895	1.001644
582.257463	1.001457
582.610975	1.001538
582.964434	1.001027
583.317837	1.002083
583.671186	1.001169
584.024481	1.001427
584.377721	1.002025
584.730906	1.001678
585.084037	1.001211
585.437113	1.000968
585.790135	1.001984
586.143103	1.001039
586.496016	1.001949
586.848874	1.001491
587.201679	1.001390
587.554428	1.001412
587.907124	1.001546
588.259765	1.001601
588.612352	1.002361
588.964884	1.001402
589.317362	1.001998
589.669786	1.002215
590.022155	1.001634
590.374470	1.000956
590.726731	1.001009
591.078937	1.001057
591.431090	1.001216
591.783188	1.001594
592.135232	1.001149
592.487222	1.001805
592.839157	1.000907
593.191038	1.001279
593.542866	1.000830
593.894639	1.001852
594.246358	1.001397
594.598022	1.001363
594.949633	1.001467
595.301190	1.000567
595.652692	1.001626
596.004141	1.002084
596.355535	1.001535
596.706876	1.001345
597.058162	1.001824
597.409395	1.001471
597.760573	1.001522
598.111698	1.001113
598.462768	1.001221
598.813785	1.001144
599.164748	1.001555
599.515657	1.000732
599.866511	1.000924
600.217312	1.001064
600.568060	1.001298
600.918753	1.001740
601.269392	1.002098
601.619978	1.001068
601.970510	1.001906
602.320988	1.001992
602.671412	1.000907
603.021783	1.000703
603.372100	1.002143
603.722363	1.002206
604.072572	1.001002
604.422728	1.001529
604.772830	1.001528
605.122878	1.000928
605.472872	1.001938
605.822813	1.000860
606.172701	1.001152
606.522534	1.001492
606.872314	1.001528
607.222041	1.000944
607.571714	1.002181
607.921333	1.000924
608.270899	1.002146
608.620411	1.001471
608.969870	1.001492
609.319276	1.001472
609.668627	1.001374
610.017926	1.000933
610.367171	1.001613
610.716362	1.001038
611.065500	1.000956
611.414585	1.001326
611.763616	1.001750
612.112594	1.001498
612.461518	1.001195
612.810389	1.001470
613.159207	1.001412
613.507971	1.001371
613.856682	1.001460
614.205340	1.001642
614.553945	1.000267
614.902496	1.001522
615.250994	1.001514
615.599439	1.001435
615.947830	1.001124
616.296169	1.001218
616.644454	1.000757
616.992686	1.001094
617.340864	1.001333
617.688990	1.001389
618.037063	1.001461
618.385082	1.000935
618.733048	1.000700
619.080961	1.001487
619.428821	1.001321
619.776628	1.001399
620.124382	1.000814
620.472083	1.000301
620.819731	1.000827
621.167326	1.001152
621.514868	1.001510
621.862357	1.001273
622.209793	1.001801
622.557176	1.000263
622.904506	1.001033
623.251783	1.000291
623.599007	1.000720
623.946179	1.001404
624.293297	1.001201
624.640363	1.000524
624.987376	1.000297
625.334336	1.001482
625.681243	1.000692
626.028097	1.001386
626.374899	1.001635
626.721647	1.001610
627.068343	1.001832
627.414987	1.000407
627.761577	1.001371
628.108115	1.001001
628.454600	1.001293
628.801032	1.000267
629.147412	1.001557
629.493739	1.000531
629.840014	1.000838
630.186236	1.001272
630.532405	1.001105
630.878521	1.001517
631.224585	1.001189
631.570597	1.000901
631.916556	1.001096
632.262462	1.000815
632.608316	1.001096
632.954117	1.000132
633.299866	1.000448
633.645562	1.001031
633.991206	1.001832
634.336797	1.002068
634.682336	1.000963
635.027823	1.000908
635.373257	1.001710
635.718639	1.001752
636.063968	1.001325
636.409245	1.001149
636.754470	1.001938
637.099642	1.001547
637.444762	1.001118
637.789829	1.000640
638.134845	1.000750
638.479808	1.001207
638.824719	1.001025
639.169577	1.000933
639.514383	1.001198
639.859137	1.000747
640.203839	1.001490
640.548489	1.001028
640.893086	1.001417
641.237632	1.001412
641.582125	1.000070
641.926566	0.999776
642.270955	1.001106
642.615292	1.001776
642.959576	1.001010
643.303809	1.000432
643.647990	0.999790
643.992118	1.000802
644.336195	1.000812
644.680219	1.001255
645.024192	1.001737
645.368112	1.001060
645.711981	1.000992
646.055797	1.000684
646.399562	1.000121
646.743274	0.999835
647.086935	1.001465
647.430544	1.000879
647.774101	1.000557
648.117606	1.000480
648.461059	1.000395
648.804460	1.000865
649.147810	1.001232
649.491108	1.001006
649.834354	1.000737
650.177548	1.001188
650.520690	1.001123
650.863781	1.000621
651.206820	1.001478
651.549807	1.001681
651.892742	1.001239
652.235626	1.000475
652.578458	1.001241
652.921238	1.000216
653.263967	1.001368
653.606644	1.001538
653.949269	1.001054
654.291843	1.000582
654.634365	1.001047
654.976836	1.000578
655.319255	1.000695
655.661622	1.000964
656.003938	1.000271
656.346203	1.000879
656.688416	1.000975
657.030577	1.000960
657.372687	1.000634
657.714746	1.000476
658.056753	1.000180
658.398708	1.000844
658.740612	1.000764
659.082465	1.000644
659.424266	1.000345
659.766016	1.000310
660.107715	1.000027
660.449362	1.001011
660.790958	1.000955
661.132503	0.999375
661.473996	1.000160
661.815438	1.000428
662.156829	0.999828
662.498168	1.000654
662.839456	0.999689
663.180693	1.000918
663.521879	1.000379
663.863013	1.000655
664.204097	1.000757
664.545129	1.000664
664.886110	1.001400
665.227040	1.000534
665.567918	0.999739
665.908746	1.000479
666.249522	1.000079
666.590248	1.000334
666.930922	1.000942
667.271545	1.000717
667.612118	1.000166
667.952639	0.999758
668.293109	1.000181
668.633528	1.000344
668.973896	1.000839
669.314213	1.000291
669.654480	1.000897
669.994695	1.000110
670.334859	1.000266
670.674973	0.999575
671.015035	1.000747
671.355047	0.999480
671.695008	1.000661
672.034918	0.998966
672.374777	0.999582
672.714585	0.999811
673.054342	1.000182
673.394049	0.999324
673.733705	0.999536
674.073310	0.999800
674.412864	1.000291
674.752368	0.999655
675.091820	1.000626
675.431223	1.000062
675.770574	1.000019
676.109875	1.000078
676.449125	0.999159
676.788324	0.999471
677.127473	1.000339
677.466571	0.999283
677.805619	0.999458
678.144616	0.999569
678.483562	0.999452
678.822458	0.999731
679.161303	0.999829
679.500098	0.999309
679.838842	0.999534
680.177535	0.999931
680.516179	0.999311
680.854771	0.999873
681.193314	0.999549
681.531805	0.999181
681.870247	0.998814
682.208638	0.998559
682.546978	0.998915
682.885268	0.998555
683.223508	0.998932
683.561697	0.998533
683.899836	0.998724
684.237925	0.998586
684.575963	0.998761
684.913951	0.997636
685.251889	0.998489
685.589776	0.998029
685.927614	0.998216
686.265401	0.998726
686.603137	0.997853
686.940824	0.997207
687.278460	0.997313
687.616046	0.996811
687.953582	0.997205
688.291068	0.997283
688.628504	0.998265
688.965889	0.996287
689.303224	0.996398
689.640510	0.998009
689.977745	0.996107
690.314930	0.997732
690.652065	0.996885
690.989150	0.996281
691.326185	0.996665
691.663170	0.997623
692.000105	0.997181
692.336990	0.996405
692.673825	0.997083
693.010610	0.998498
693.347345	0.996122
693.684030	0.996926
694.020665	0.997173
694.357251	0.997437
694.693786	0.996938
695.030272	0.998138
695.366707	0.996300
695.703093	0.996912
696.039429	0.997042
696.375716	0.996694
696.711952	0.996725
697.048139	0.996360
697.384276	0.996461
697.720363	0.995299
698.056400	0.995534
698.392388	0.995147
698.728326	0.996872
699.064214	0.997413
699.400053	0.996904
699.735842	0.996526
700.071581	0.996216
700.407270	0.995140
700.742910	0.996038
701.078501	0.996210
701.414042	0.995792
701.749533	0.995029
702.084974	0.996285
702.420366	0.994100
702.755709	0.995084
703.091002	0.995807
703.426246	0.995575
703.761440	0.995539
704.096584	0.995536
704.431679	0.994981
704.766725	0.995095
705.101721	0.994439
705.436668	0.994475
705.771565	0.995130
706.106413	0.994700
706.441212	0.995144
706.775961	0.993233
707.110661	0.994120
707.445311	0.993652
707.779913	0.993528
708.114465	0.993401
708.448967	0.993188
708.783421	0.993194
709.117825	0.992500
709.452180	0.993798
709.786485	0.992344
710.120742	0.991146
710.454949	0.992224
710.789107	0.991999
711.123216	0.991256
711.457275	0.991634
711.791286	0.989667
712.125247	0.989979
712.459159	0.989976
712.793023	0.991511
713.126837	0.989998
713.460602	0.990403
713.794318	0.991528
714.127985	0.990082
714.461602	0.991882
714.795171	0.990507
715.128691	0.990311
715.462162	0.991129
715.795584	0.990025
716.128957	0.990443
716.462281	0.991580
716.795556	0.990511
717.128782	0.990645
717.461960	0.990323
717.795088	0.990217
718.128167	0.990616
718.461198	0.991986
718.794180	0.991259
719.127113	0.991369
719.459997	0.991547
719.792833	0.991921
720.125619	0.991412
720.458357	0.991912
720.791046	0.991650
721.123686	0.990546
721.456278	0.990300
721.788821	0.990640
722.121315	0.990352
722.453761	0.990999
722.786158	0.990171
723.118506	0.991183
723.450805	0.991542
723.783056	0.990238
724.115259	0.989231
724.447412	0.990141
724.779518	0.990233
725.111574	0.989559
725.443582	0.989149
725.775542	0.989774
726.107453	0.988240
726.439315	0.989004
726.771129	0.987255
727.102895	0.987915
727.434612	0.987022
727.766281	0.986875
728.097901	0.986591
728.429473	0.988066
728.760996	0.986896
729.092471	0.985981
729.423897	0.987666
729.755276	0.986689
730.086606	0.986196
730.417887	0.986476
730.749120	0.985718
731.080305	0.984353
731.411442	0.983364
731.742530	0.987138
732.073570	0.985032
732.404562	0.983617
732.735506	0.984028
733.066401	0.984111
733.397249	0.984565
733.728048	0.985043
734.058798	0.985131
734.389501	0.985216
734.720156	0.985243
735.050762	0.987000
735.381320	0.985462
735.711831	0.988150
736.042293	0.987746
736.372707	0.985550
736.703073	0.985356
737.033391	0.987152
737.363661	0.985862
737.693883	0.985527
738.024056	0.985278
738.354182	0.986322
738.684260	0.984356
739.014290	0.983235
739.344272	0.984275
739.674207	0.983652
740.004093	0.983942
740.333931	0.983993
740.663722	0.982520
740.993464	0.983745
741.323159	0.982802
741.652806	0.982129
741.982405	0.982661
742.311956	0.982528
742.641460	0.982634
742.970915	0.982952
743.300323	0.983698
743.629683	0.983850
743.958996	0.984210
744.288260	0.984347
744.617477	0.984413
744.946647	0.983590
745.275768	0.983320
745.604842	0.983265
745.933869	0.984904
746.262847	0.984250
746.591778	0.981798
746.920662	0.983455
747.249498	0.984592
747.578286	0.982503
747.907027	0.982680
748.235720	0.984316
748.564365	0.982440
748.892963	0.982093
749.221514	0.981200
749.550017	0.982278
749.878473	0.980991
750.206881	0.983356
750.535242	0.983731
750.863555	0.984100
751.191821	0.983915
751.520039	0.983325
751.848210	0.984512
752.176334	0.982177
752.504411	0.981827
752.832440	0.982421
753.160421	0.984291
753.488356	0.984104
753.816243	0.982830
754.144082	0.982078
754.471875	0.983964
754.799620	0.981113
755.127318	0.981871
755.454969	0.981339
755.782572	0.981684
756.110129	0.982235
756.437638	0.982338
756.765100	0.981551
757.092515	0.981834
757.419882	0.981564
757.747203	0.981717
758.074477	0.980750
758.401703	0.981259
758.728882	0.980506
759.056014	0.980748
759.383099	0.980964
759.710138	0.981718
760.037129	0.981530
760.364073	0.980000
760.690970	0.980187
761.017820	0.982478
761.344623	0.980042
761.671379	0.979428
761.998088	0.977161
762.324751	0.976813
762.651366	0.975225
762.977935	0.970106
763.304456	0.965101
763.630931	0.961841
763.957359	0.964663
764.283740	0.970153
764.610074	0.970662
764.936362	0.971423
765.262602	0.973396
765.588796	0.974938
765.914943	0.978088
766.241044	0.978851
766.567097	0.979645
766.893104	0.979544
767.219064	0.980036
767.544978	0.981159
767.870845	0.983019
768.196665	0.983253
768.522438	0.981989
768.848165	0.982256
769.173846	0.983428
769.499479	0.984269
769.825066	0.983226
770.150607	0.985170
770.476101	0.982666
770.801548	0.981284
771.126949	0.983553
771.452303	0.982843
771.777611	0.984064
772.102872	0.984627
772.428087	0.983054
772.753256	0.983393
773.078378	0.983818
773.403453	0.984937
773.728482	0.985863
774.053465	0.984323
774.378401	0.984774
774.703291	0.986596
775.028135	0.986170
775.352932	0.986758
775.677683	0.986293
776.002388	0.985184
776.327046	0.984959
776.651658	0.984931
776.976224	0.985625
777.300743	0.986454
777.625216	0.985809
777.949643	0.985968
778.274024	0.986951
778.598359	0.986464
778.922647	0.985423
779.246889	0.986005
779.571086	0.988054
779.895236	0.987578
780.219339	0.987088
780.543397	0.985681
780.867409	0.985426
781.191374	0.985817
781.515294	0.985637
781.839167	0.985568
782.162995	0.987587
782.486776	0.984716
782.810511	0.985410
783.134201	0.985562
783.457844	0.984209
783.781441	0.985772
784.104993	0.986983
784.428498	0.986799
784.751958	0.984932
785.075372	0.986154
785.398739	0.986631
785.722061	0.987139
786.045337	0.984247
786.368568	0.985793
786.691752	0.986800
787.014891	0.984322
787.337983	0.983229
787.661030	0.983544
787.984031	0.982490
788.306987	0.979730
788.629897	0.981004
788.952760	0.980261
789.275579	0.979913
789.598351	0.981128
789.921078	0.983877
790.243759	0.983042
790.566395	0.984081
790.888984	0.985490
791.211529	0.984854
791.534027	0.984723
791.856480	0.984427
792.178888	0.985419
792.501249	0.986813
792.823566	0.985674
793.145836	0.986104
793.468062	0.987368
793.790241	0.986548
794.112375	0.985624
794.434464	0.984652
794.756507	0.985071
795.078505	0.985484
795.400457	0.986461
795.722364	0.984115
796.044226	0.981909
796.366042	0.982124
796.687812	0.983486
797.009538	0.983933
797.331218	0.981758
797.652852	0.982676
797.974442	0.984427
798.295986	0.982535
798.617484	0.983461
798.938938	0.983728
799.260346	0.984893
799.581709	0.985035
799.903026	0.984802
800.224299	0.984042
800.545526	0.986440
800.866708	0.986120
801.187845	0.988167
801.508936	0.987398
801.829983	0.986471
802.150984	0.985123
802.471940	0.986885
802.792851	0.986606
803.113717	0.987370
803.434538	0.986281
803.755314	0.987424
804.076045	0.988365
804.396731	0.988277
804.717372	0.987913
805.037967	0.988673
805.358518	0.988241
805.679024	0.987663
805.999485	0.986777
806.319901	0.987949
806.640272	0.987975
806.960598	0.987661
807.280879	0.986678
807.601115	0.987164
807.921306	0.987744
808.241453	0.986165
808.561554	0.986031
808.881611	0.986199
809.201623	0.986075
809.521590	0.985745
809.841513	0.986565
810.161390	0.986610
810.481223	0.986362
810.801011	0.987331
811.120755	0.988111
811.440453	0.986545
811.760107	0.985523
812.079716	0.985716
812.399281	0.986230
812.718801	0.987525
813.038276	0.987529
813.357707	0.986322
813.677093	0.985466
813.996434	0.987623
814.315731	0.987275
814.634983	0.987301
814.954191	0.985495
815.273354	0.986637
815.592473	0.984270
815.911547	0.985023
816.230577	0.984973
816.549562	0.985063
816.868502	0.985743
817.187399	0.984072
817.506250	0.983178
817.825058	0.982040
818.143821	0.982946
818.462539	0.980724
818.781213	0.980101
819.099843	0.978121
819.418429	0.977048
819.736970	0.975550
820.055466	0.971603
820.373919	0.966239
820.692327	0.959800
821.010691	0.956869
821.329011	0.950606
821.647286	0.940815
821.965517	0.931363
822.283704	0.929638
822.601847	0.927602
822.919945	0.923801
823.237999	0.918108
823.556010	0.923665
823.873976	0.928061
824.191897	0.934013
824.509775	0.938565
824.827609	0.947199
825.145398	0.949827
825.463144	0.949607
825.780845	0.949533
826.098502	0.948006
826.416116	0.941741
826.733685	0.938942
827.051210	0.935092
827.368692	0.936286
827.686129	0.938427
828.003522	0.945618
828.320872	0.950629
828.638177	0.959277
828.955439	0.965593
829.272656	0.969904
829.589830	0.971483
829.906960	0.974558
830.224046	0.976981
830.541088	0.978624
830.858086	0.978201
831.175041	0.979981
831.491952	0.979481
831.808819	0.978921
832.125642	0.978041
832.442421	0.973999
832.759157	0.972044
833.075849	0.965533
833.392497	0.957462
833.709101	0.950148
834.025662	0.949886
834.342179	0.951981
834.658653	0.958734
834.975083	0.965201
835.291469	0.968685
835.607811	0.972515
835.924110	0.974165
836.240366	0.979212
836.556578	0.980787
836.872746	0.983259
837.188871	0.983502
837.504952	0.984637
837.820990	0.985885
838.136984	0.986545
838.452935	0.986972
838.768842	0.988102
839.084706	0.986374
839.400526	0.981953
839.716303	0.976622
840.032037	0.973795
840.347727	0.971922
840.663373	0.973976
840.978977	0.976084
841.294537	0.981574
841.610054	0.985082
841.925527	0.985515
842.240957	0.986426
842.556344	0.988188
842.871687	0.989431
843.186987	0.991845
843.502244	0.990680
843.817458	0.991908
844.132629	0.990693
844.447756	0.992234
844.762840	0.993066
845.077881	0.990690
845.392879	0.990813
845.707833	0.992917
846.022745	0.993459
846.337613	0.994111
846.652438	0.993667
846.967221	0.992285
847.281960	0.992516
847.596656	0.995298
847.911309	0.992464
848.225919	0.993949
848.540485	0.993495
848.855009	0.993615
849.169490	0.993614
849.483928	0.994491
849.798323	0.995578
850.112675	0.993807
850.426984	0.993747
850.741251	0.993771
851.055474	0.993574
851.369654	0.992926
851.683792	0.994078
851.997887	0.994145
852.311938	0.995028
852.625947	0.993775
852.939914	0.992695
853.253837	0.993882
853.567718	0.994349
853.881555	0.994084
854.195350	0.992761
854.509103	0.993905
854.822812	0.993879
855.136479	0.993850
855.450103	0.995234
855.763685	0.992831
856.077224	0.993125
856.390720	0.993176
856.704173	0.994588
857.017584	0.993750
857.330953	0.992323
857.644278	0.993913
857.957561	0.993754
858.270802	0.993168
858.584000	0.993114
858.897155	0.992182
859.210268	0.992810
859.523339	0.992125
859.836367	0.993047
860.149352	0.993319
860.462295	0.991483
860.775195	0.993766
861.088054	0.992770
861.400869	0.992425
861.713642	0.993509
862.026373	0.993537
862.339062	0.992811
862.651708	0.991796
862.964312	0.992160
863.276873	0.992685
863.589392	0.992455
863.901869	0.993848
864.214303	0.992625
864.526696	0.992710
864.839045	0.993148
865.151353	0.990495
865.463619	0.991842
865.775842	0.991029
866.088023	0.990742
866.400162	0.991594
866.712258	0.991843
867.024313	0.991778
867.336325	0.991223
867.648296	0.991047
867.960224	0.992452
868.272110	0.990800
868.583954	0.991227
868.895755	0.991487
869.207515	0.990899
869.519233	0.991374
869.830909	0.990855
870.142542	0.991054
870.454134	0.991091
870.765684	0.989912
871.077191	0.990174
871.388657	0.990683
871.700081	0.989150
872.011463	0.990333
872.322803	0.991087
872.634101	0.989907
872.945357	0.989906
873.256571	0.989778
873.567744	0.989335
873.878874	0.987915
874.189963	0.987558
874.501010	0.987637
874.812015	0.988141
875.122979	0.988980
875.433900	0.988719
875.744780	0.988278
876.055618	0.988252
876.366415	0.987529
876.677169	0.987255
876.987882	0.987620
877.298554	0.987359
877.609183	0.986082
877.919771	0.986097
878.230317	0.984888
878.540822	0.983911
878.851285	0.982356
879.161707	0.978937
879.472087	0.977384
879.782425	0.972092
880.092722	0.964227
880.402977	0.954647
880.713191	0.947951
881.023363	0.941973
881.333494	0.941355
881.643583	0.935191
881.953631	0.931864
882.263637	0.931455
882.573602	0.934843
882.883526	0.938748
883.193408	0.942292
883.503248	0.943527
883.813048	0.948570
884.122806	0.954648
884.432522	0.960823
884.742197	0.965425
885.051831	0.966821
885.361424	0.969315
885.670975	0.972469
885.980485	0.975080
886.289954	0.977903
886.599382	0.979377
886.908768	0.980911
887.218113	0.982495
887.527417	0.983690
887.836680	0.984994
888.145901	0.985058
888.455082	0.985042
888.764221	0.986998
889.073319	0.987676
889.382376	0.986515
889.691392	0.987608
890.000366	0.985703
890.309300	0.987937
890.618193	0.986930
890.927044	0.986919
891.235855	0.986818
891.544625	0.986837
891.853353	0.988115
892.162041	0.986560
892.470687	0.984911
892.779293	0.983011
893.087858	0.981728
893.396381	0.980713
893.704864	0.977154
894.013306	0.972453
894.321707	0.965776
894.630068	0.962651
894.938387	0.960354
895.246665	0.957949
895.554903	0.960583
895.863100	0.963078
896.171256	0.966247
896.479371	0.972305
896.787446	0.976847
897.095480	0.978287
897.403473	0.978938
897.711425	0.980332
898.019336	0.983138
898.327207	0.982930
898.635038	0.985648
898.942827	0.984389
899.250576	0.985027
899.558284	0.986620
899.865952	0.987011
900.173579	0.986212
900.481165	0.987247
900.788711	0.988962
901.096216	0.989407
901.403681	0.988418
901.711105	0.990979
902.018489	0.990365
902.325832	0.988450
902.633135	0.990079
902.940397	0.987026
903.247619	0.984715
903.554800	0.977297
903.861941	0.970025
904.169041	0.963034
904.476101	0.958104
904.783121	0.956793
905.090100	0.959292
905.397039	0.962462
905.703938	0.968408
906.010796	0.973356
906.317614	0.978673
906.624391	0.980946
906.931129	0.982737
907.237826	0.984975
907.544483	0.989980
907.851099	0.988644
908.157675	0.991734
908.464211	0.991363
908.770707	0.992422
909.077163	0.992734
909.383578	0.993303
909.689954	0.992893
909.996289	0.993490
910.302584	0.993760
910.608839	0.994993
910.915054	0.994253
911.221229	0.993615
911.527363	0.992876
911.833458	0.992616
912.139513	0.992993
912.445527	0.992198
912.751502	0.991538
913.057436	0.991424
913.363331	0.989998
913.669186	0.990462
913.975000	0.988771
914.280775	0.987473
914.586510	0.985039
914.892205	0.982439
915.197859	0.977238
915.503475	0.970543
915.809050	0.966518
916.114585	0.964446
916.420081	0.963884
916.725536	0.961643
917.030952	0.962128
917.336328	0.965926
917.641665	0.968927
917.946961	0.973404
918.252218	0.977218
918.557435	0.979500
918.862612	0.983591
919.167750	0.984787
919.472848	0.983721
919.777906	0.986086
920.082925	0.987437
920.387904	0.990239
920.692843	0.990715
920.997743	0.989077
921.302603	0.990173
921.607423	0.991224
921.912204	0.991717
922.216946	0.991801
922.521647	0.992475
922.826310	0.993483
923.130932	0.993744
923.435516	0.994060
923.740059	0.994578
924.044564	0.992937
924.349028	0.994746
924.653454	0.995025
924.957840	0.996641
925.262186	0.995851
925.566493	0.995358
925.870761	0.995830
926.174989	0.996264
926.479178	0.998192
926.783328	0.998301
927.087438	0.997839
927.391509	0.997343
927.695541	0.999344
927.999533	0.997539
928.303486	0.996995
928.607400	0.998957
928.911275	0.997509
929.215110	0.998099
929.518906	0.997904
929.822663	0.997420
930.126381	0.998613
930.430060	0.998084
930.733699	0.998020
931.037299	0.997685
931.340861	1.000647
931.644383	0.997544
931.947866	0.997936
932.251309	0.998786
932.554714	0.998412
932.858080	0.997472
933.161407	0.997299
933.464694	0.998071
933.767943	0.996908
934.071153	0.998222
934.374323	0.998889
934.677455	0.997906
934.980548	0.998935
935.283602	0.996946
935.586617	0.998087
935.889593	0.997267
936.192530	0.996671
936.495428	0.997841
936.798287	0.998802
937.101108	0.998370
937.403890	0.997853
937.706632	0.997827
938.009336	0.997253
938.312002	0.996378
938.614628	0.996352
938.917216	0.996187
939.219765	0.994385
939.522275	0.996553
939.824747	0.995594
940.127179	0.994348
940.429573	0.996217
940.731929	0.995393
941.034246	0.994773
941.336524	0.996493
941.638763	0.996667
941.940964	0.995862
942.243126	0.996658
942.545250	0.997556
942.847335	0.997187
943.149381	0.997424
943.451389	0.996318
943.753359	0.996226
944.055290	0.999747
944.357182	0.997766
944.659036	0.995933
944.960851	0.996473
945.262628	0.996954
945.564367	0.998906
945.866067	0.997943
946.167729	0.998331
946.469352	0.997339
946.770937	0.997340
947.072484	0.998123
947.373992	0.997818
947.675462	0.998552
947.976893	0.996767
948.278286	0.997027
948.579641	0.997733
948.880958	0.997796
949.182236	0.997464
949.483476	0.997632
949.784678	0.997604
950.085841	0.997874
950.386967	0.996892
950.688054	0.998404
950.989103	0.996932
951.290114	0.995736
951.591087	0.998357
951.892021	0.997435
952.192917	0.997122
952.493776	0.996238
952.794596	0.996969
953.095378	0.997230
953.396122	0.996799
953.696828	0.996355
953.997496	0.998398
954.298126	0.997883
954.598718	0.996841
954.899272	0.998903
955.199788	0.997108
955.500266	0.999259
955.800706	0.999152
956.101108	0.998983
956.401472	0.999001
956.701798	1.000300
957.002087	0.997727
957.302337	0.998971
957.602550	0.999327
957.902724	0.999300
958.202861	0.999303
958.502960	0.999192
958.803022	0.998072
959.103045	0.999953
959.403031	1.000711
959.702979	0.999952
960.002889	1.000263
960.302762	0.999446
960.602596	1.000137
960.902393	0.997891
961.202153	1.000491
961.501875	1.000589
961.801559	0.998686
962.101205	0.999677
962.400814	0.999913
962.700385	1.000004
962.999918	1.000100
963.299414	0.999513
963.598873	0.999617
963.898293	0.999923
964.197677	0.999392
964.497022	0.999649
964.796331	1.000314
965.095601	1.000147
965.394835	0.999970
965.694030	0.999868
965.993189	0.999803
966.292309	0.999998
966.591393	1.000181
966.890439	1.000060
967.189447	1.000078
967.488419	0.999720
967.787353	1.000147
968.086249	1.000322
968.385108	0.999985
968.683930	0.999874
968.982714	1.000251
969.281462	1.000091
969.580172	0.999368
969.878844	0.999793
970.177480	0.999099
970.476078	1.000636
970.774639	0.999449
971.073162	1.000079
971.371649	0.999799
971.670098	0.998913
971.968510	1.000827
972.266885	0.998077
972.565223	0.999634
972.863524	0.999287
973.161788	0.998886
973.460014	0.999789
973.758204	0.998185
974.056356	0.999351
974.354471	0.997389
974.652550	0.999523
974.950591	0.999895
975.248595	1.000464
975.546563	0.999352
975.844493	1.000291
976.142386	0.999329
976.440243	1.000217
976.738062	1.000373
977.035845	1.000959
977.333590	1.000418
977.631299	1.000377
977.928971	1.000208
978.226606	0.999759
978.524204	0.999170
978.821765	1.000921
979.119290	0.999239
979.416777	1.000596
979.714228	0.999431
980.011642	0.998712
980.309020	0.999811
980.606360	0.998892
980.903664	1.000378
981.200931	0.998847
981.498162	0.998583
981.795356	0.997697
982.092513	0.998476
982.389633	0.999133
982.686717	0.996973
982.983764	0.996980
983.280775	0.997009
983.577749	0.996826
983.874686	0.998331
984.171587	0.997324
984.468451	0.999032
984.765279	0.999458
985.062070	0.998083
985.358824	0.998292
985.655543	0.998378
985.952224	0.998159
986.248869	0.999220
986.545478	0.999030
986.842050	1.000457
987.138586	0.998293
987.435086	0.999464
987.731549	1.000437
988.027975	1.001145
988.324366	0.999595
988.620719	0.999692
988.917037	0.998327
989.213318	0.999657
989.509563	1.001074
989.805772	1.001126
990.101944	1.001293
990.398080	0.999524
990.694180	1.000573
990.990244	1.000046
991.286271	0.999835
991.582262	1.000461
991.878217	1.000398
992.174136	1.001736
992.470019	1.000797
992.765865	1.000720
993.061676	1.000974
993.357450	1.000006
993.653188	0.999563
993.948890	1.000026
994.244556	1.000324
994.540186	0.999836
994.835780	0.998355
995.131337	1.000418
995.426859	0.998385
995.722345	1.000454
996.017795	0.998787
996.313208	0.999795
996.608586	0.998775
996.903928	0.999002
997.199234	0.999114
997.494504	0.999984
997.789738	0.999455
998.084936	0.998451
998.380099	0.999888
998.675225	1.000611
998.970316	1.000463
999.265371	1.000698
999.560390	1.000305
999.855373	1.001476
1000.150320	0.999962
1000.445232	0.999823
1000.740108	0.999459
1001.034948	1.000926
1001.329752	1.001010
1001.624521	1.000113
1001.919254	1.000049
1002.213951	0.999664
1002.508613	1.001302
1002.803239	0.999805
1003.097829	0.999867
1003.392384	1.000724
1003.686903	0.999594
1003.981386	1.000575
1004.275834	0.999541
1004.570246	0.999008
1004.864623	1.001569
1005.158964	0.999882
1005.453270	1.000778
1005.747540	0.999776
1006.041775	1.000468
1006.335974	1.001367
1006.630138	1.000482
1006.924266	1.000540
1007.218359	1.001133
1007.512416	1.000343
1007.806438	1.001082
1008.100425	1.000806
1008.394376	0.999335
1008.688292	0.999661
1008.982172	1.003003
1009.276017	1.001714
1009.569827	1.000498
1009.863602	1.000442
1010.157341	1.001024
1010.451045	0.999994
1010.744714	1.000363
1011.038347	1.000750
1011.331945	1.000505
1011.625508	0.999867
1011.919036	0.999712
1012.212528	1.000264
1012.505986	0.999329
1012.799408	1.000241
1013.092795	0.999447
1013.386147	1.000863
1013.679464	1.000080
1013.972745	0.999772
1014.265992	1.000057
1014.559204	1.000754
1014.852380	1.001419
1015.145521	1.000621
1015.438628	1.000502
1015.731699	1.000825
1016.024736	0.999811
1016.317737	0.999935
1016.610703	0.999694
1016.903635	1.000234
1017.196531	0.999796
1017.489393	1.002027
1017.782219	0.999092
1018.075011	0.999777
1018.367768	1.001285
1018.660490	1.000217
1018.953177	1.000217
1019.245829	1.000217
