Dividing Wavelength (nm)	Counts (n)	Blue Motor Position (mm): 0.000000	Red Motor Position (mm): 48.100000	
326.493990	1.000466
326.888308	1.000466
327.282561	1.000466
327.676750	1.001137
328.070874	0.999328
328.464933	1.001292
328.858929	0.999671
329.252859	0.999119
329.646726	0.999081
330.040528	0.999237
330.434265	1.000170
330.827938	1.001830
331.221547	1.001666
331.615091	0.999094
332.008571	1.000138
332.401986	1.000453
332.795338	1.000547
333.188625	0.998737
333.581847	0.999780
333.975006	0.999715
334.368100	0.999612
334.761129	0.999833
335.154095	1.001046
335.546996	1.000789
335.939833	0.999518
336.332606	1.000566
336.725315	1.000759
337.117960	1.002536
337.510540	0.999931
337.903056	1.000569
338.295508	0.998420
338.687896	1.000113
339.080220	1.000379
339.472480	0.999515
339.864676	1.000300
340.256807	1.000201
340.648875	1.002621
341.040879	1.001988
341.432818	1.000064
341.824694	1.000643
342.216506	1.000833
342.608253	1.000077
342.999937	1.000167
343.391557	1.000721
343.783113	1.000632
344.174605	1.001257
344.566033	1.000068
344.957397	1.000203
345.348697	1.000261
345.739934	1.001126
346.131106	0.999996
346.522215	0.999566
346.913260	0.999553
347.304241	0.999834
347.695159	0.999601
348.086012	0.999345
348.476802	1.000102
348.867528	1.000912
349.258191	0.998815
349.648789	1.000116
350.039324	1.000168
350.429796	1.000608
350.820203	1.000312
351.210548	1.000445
351.600828	0.999900
351.991045	1.000397
352.381198	0.999273
352.771288	1.000339
353.161314	0.999969
353.551276	1.001086
353.941175	0.999973
354.331010	1.000662
354.720782	1.002031
355.110490	0.999521
355.500135	1.000628
355.889717	0.999703
356.279235	0.999578
356.668689	0.999924
357.058080	0.999741
357.447408	1.001946
357.836672	0.999503
358.225873	1.000943
358.615010	0.999958
359.004084	1.001639
359.393095	0.999891
359.782043	0.999329
360.170927	1.001462
360.559748	1.000221
360.948505	1.000083
361.337199	0.999923
361.725830	1.000935
362.114398	1.000976
362.502903	1.001789
362.891344	1.001752
363.279722	0.999246
363.668037	1.001655
364.056289	1.000324
364.444478	1.000850
364.832603	1.000930
365.220665	1.001097
365.608665	0.999607
365.996601	1.000561
366.384474	0.999822
366.772284	0.999339
367.160031	0.999398
367.547715	1.000146
367.935336	1.000196
368.322893	0.999039
368.710388	0.999551
369.097820	1.000624
369.485189	0.999962
369.872495	1.000469
370.259738	0.996925
370.646918	0.999416
371.034035	1.000703
371.421090	0.999808
371.808081	0.999661
372.195010	1.001376
372.581875	1.000709
372.968678	1.000667
373.355418	1.000496
373.742096	0.999074
374.128710	1.000421
374.515262	0.999317
374.901751	1.000871
375.288177	1.000602
375.674540	1.000118
376.060841	1.000038
376.447079	1.000705
376.833254	1.001032
377.219367	0.999749
377.605417	1.000709
377.991404	1.000379
378.377329	0.999911
378.763191	1.000121
379.148991	1.000537
379.534727	1.001228
379.920402	1.000817
380.306013	1.000392
380.691563	1.002285
381.077049	1.000212
381.462474	1.000193
381.847835	1.000099
382.233134	0.999504
382.618371	1.000342
383.003545	1.000172
383.388657	0.999640
383.773706	1.000275
384.158693	1.001223
384.543618	1.000646
384.928480	1.001391
385.313280	0.999562
385.698017	1.000534
386.082692	1.001486
386.467305	1.000644
386.851856	0.999912
387.236344	0.999752
387.620770	0.999455
388.005133	1.000352
388.389435	1.001496
388.773674	1.000049
389.157851	1.000450
389.541965	1.000148
389.926018	0.999991
390.310008	1.001052
390.693936	1.000764
391.077802	1.001080
391.461606	1.001219
391.845348	1.000970
392.229027	1.001726
392.612645	1.001028
392.996200	1.001952
393.379694	1.000502
393.763125	1.001564
394.146494	1.001311
394.529801	1.000116
394.913047	1.000744
395.296230	1.001360
395.679351	1.000740
396.062410	0.999832
396.445408	1.000820
396.828343	1.000515
397.211217	1.000112
397.594028	1.001380
397.976778	1.000687
398.359466	1.001258
398.742092	0.999975
399.124656	1.000515
399.507158	1.000795
399.889598	1.001313
400.271977	1.000799
400.654294	1.000277
401.036549	1.001751
401.418742	1.001662
401.800874	1.000697
402.182944	1.000784
402.564952	1.000136
402.946898	1.001478
403.328783	1.000706
403.710606	1.000484
404.092367	0.999983
404.474067	1.001680
404.855705	1.000747
405.237282	1.000205
405.618797	1.000735
406.000250	1.000079
406.381642	1.000986
406.762972	1.000917
407.144240	1.001351
407.525447	1.001025
407.906593	1.000449
408.287677	1.000539
408.668700	1.001887
409.049661	1.000777
409.430560	1.000764
409.811399	1.000130
410.192176	1.000858
410.572891	1.000605
410.953545	1.000176
411.334138	1.000023
411.714669	1.000169
412.095139	1.000431
412.475547	1.000798
412.855894	1.000846
413.236180	1.000886
413.616405	1.001326
413.996568	1.001122
414.376670	1.001099
414.756711	1.000923
415.136691	1.000549
415.516609	1.000564
415.896466	1.001521
416.276262	1.000253
416.655997	1.000767
417.035670	1.000753
417.415283	1.001403
417.794834	1.000401
418.174324	1.000232
418.553753	1.000748
418.933121	1.000208
419.312428	1.000415
419.691674	1.000422
420.070859	1.000764
420.449983	1.000655
420.829045	1.001097
421.208047	1.001443
421.586988	1.001484
421.965867	1.000259
422.344686	1.001759
422.723444	1.001051
423.102141	1.000805
423.480777	1.001136
423.859352	1.000702
424.237866	1.000286
424.616319	1.000474
424.994712	1.000710
425.373044	1.001294
425.751314	1.001603
426.129524	1.000009
426.507673	1.000813
426.885762	1.001428
427.263789	1.001241
427.641756	1.001051
428.019662	1.001107
428.397508	1.000944
428.775292	1.000192
429.153016	1.000819
429.530679	1.000761
429.908282	1.001026
430.285824	1.000219
430.663305	1.000597
431.040726	1.000659
431.418086	1.001987
431.795385	1.001483
432.172624	1.001285
432.549802	1.001807
432.926920	1.001197
433.303977	1.000319
433.680974	1.000591
434.057910	1.001294
434.434786	1.000954
434.811601	1.000471
435.188355	1.000556
435.565050	1.000257
435.941683	1.000716
436.318257	1.001874
436.694770	0.999868
437.071222	1.000765
437.447614	1.001100
437.823946	1.000674
438.200218	1.001631
438.576429	1.000809
438.952580	1.001506
439.328670	1.000457
439.704700	1.001519
440.080670	1.001240
440.456580	1.000988
440.832429	1.000873
441.208218	1.000451
441.583947	1.001086
441.959616	1.001593
442.335224	1.000280
442.710773	1.002203
443.086261	1.000279
443.461689	1.000515
443.837057	1.000599
444.212365	1.001567
444.587612	1.000853
444.962800	1.000693
445.337927	1.000882
445.712995	1.001239
446.088002	1.001241
446.462949	1.001212
446.837837	1.001380
447.212664	1.001289
447.587431	1.000688
447.962139	1.000630
448.336786	1.001430
448.711374	1.001580
449.085901	1.001248
449.460369	1.002179
449.834776	1.000764
450.209124	1.001278
450.583412	1.000795
450.957640	1.001163
451.331808	1.001031
451.705917	1.000742
452.079965	1.000970
452.453954	1.001424
452.827883	1.000448
453.201752	1.001138
453.575562	1.001964
453.949311	1.001212
454.323001	1.001485
454.696632	1.000995
455.070202	1.001080
455.443713	1.000856
455.817164	1.000620
456.190556	1.000550
456.563888	1.000553
456.937160	1.001083
457.310373	1.000307
457.683526	1.000988
458.056619	1.001485
458.429653	1.000782
458.802628	1.000529
459.175542	1.000399
459.548398	1.001300
459.921194	1.000724
460.293930	1.001200
460.666607	0.999645
461.039224	0.999876
461.411782	1.000683
461.784280	1.000495
462.156719	1.001177
462.529099	1.000986
462.901419	1.001427
463.273680	1.000489
463.645882	1.001351
464.018024	1.000502
464.390106	1.001283
464.762130	1.001810
465.134094	1.001235
465.505999	1.001853
465.877845	1.000767
466.249631	1.001386
466.621358	1.001088
466.993026	1.000962
467.364634	1.000571
467.736184	1.001232
468.107674	1.001027
468.479105	1.000318
468.850477	1.000994
469.221790	1.001734
469.593043	1.001796
469.964238	1.002186
470.335373	1.000980
470.706449	1.000443
471.077467	1.001391
471.448425	1.000702
471.819324	1.001449
472.190164	1.000663
472.560945	1.001273
472.931667	1.000634
473.302330	1.000753
473.672934	1.001549
474.043479	1.001176
474.413965	1.001241
474.784393	1.001052
475.154761	1.001151
475.525070	1.000715
475.895321	1.001182
476.265513	1.000722
476.635645	1.001185
477.005719	1.001600
477.375734	1.000305
477.745691	1.000923
478.115588	1.001352
478.485427	1.001213
478.855207	1.001509
479.224928	1.001583
479.594591	1.000883
479.964194	1.001432
480.333739	1.001692
480.703226	1.001095
481.072653	1.001541
481.442022	1.001198
481.811333	1.000133
482.180584	1.001202
482.549777	1.000319
482.918912	1.001090
483.287988	1.001031
483.657005	1.000962
484.025964	1.001672
484.394864	1.001903
484.763706	1.001029
485.132489	1.000879
485.501213	1.001139
485.869879	1.000998
486.238487	1.001681
486.607036	1.001510
486.975527	1.001178
487.343959	1.001053
487.712333	1.001227
488.080648	1.001121
488.448905	1.000693
488.817104	1.001590
489.185244	1.001912
489.553326	1.001372
489.921350	1.001282
490.289315	1.001360
490.657222	1.001465
491.025070	1.001581
491.392861	1.001809
491.760593	1.001660
492.128267	1.001497
492.495883	1.001490
492.863440	1.001031
493.230939	1.001219
493.598380	1.001382
493.965763	1.001408
494.333088	1.001597
494.700354	1.001472
495.067563	1.000997
495.434713	1.001009
495.801805	1.001738
496.168839	1.000797
496.535815	1.000518
496.902733	1.000816
497.269593	1.000831
497.636395	1.001670
498.003139	1.001311
498.369825	1.001877
498.736453	1.000969
499.103023	1.000750
499.469535	1.001159
499.835989	1.001147
500.202385	1.001350
500.568723	1.001284
500.935003	1.001323
501.301226	1.001372
501.667390	1.001100
502.033497	1.001128
502.399546	1.002111
502.765537	1.000400
503.131470	1.000789
503.497345	1.000976
503.863163	1.002114
504.228923	1.000967
504.594625	1.001342
504.960269	1.001770
505.325856	1.001036
505.691385	1.000994
506.056856	1.000954
506.422270	1.001187
506.787625	1.001022
507.152924	1.001452
507.518164	1.000688
507.883347	1.000750
508.248472	1.001540
508.613540	1.001253
508.978550	1.002059
509.343503	0.999942
509.708398	1.000984
510.073236	1.000945
510.438016	1.000827
510.802738	1.000825
511.167403	1.001486
511.532010	1.000899
511.896561	1.000756
512.261053	1.001866
512.625488	1.001214
512.989866	1.001270
513.354186	1.000912
513.718449	1.001014
514.082655	1.001705
514.446803	1.001023
514.810894	1.001370
515.174927	1.001706
515.538904	1.000767
515.902822	1.001233
516.266684	1.000741
516.630488	1.002108
516.994235	1.000942
517.357925	1.000963
517.721558	1.001462
518.085133	1.000057
518.448651	1.002008
518.812112	1.001253
519.175516	1.000694
519.538863	1.001406
519.902152	1.000606
520.265385	1.000482
520.628560	1.001498
520.991678	1.001293
521.354739	1.001556
521.717743	1.001239
522.080690	1.001539
522.443580	1.001361
522.806413	1.001594
523.169189	1.000929
523.531908	1.000219
523.894569	1.000779
524.257174	1.001460
524.619722	1.001367
524.982213	1.001200
525.344647	1.001220
525.707025	1.000868
526.069345	1.000756
526.431608	1.001382
526.793815	1.001822
527.155964	1.001205
527.518057	1.001340
527.880093	1.001639
528.242072	1.001399
528.603995	1.001539
528.965860	1.001213
529.327669	1.001136
529.689421	1.000711
530.051117	1.001759
530.412755	1.001014
530.774337	1.001451
531.135862	1.000561
531.497331	1.001469
531.858743	1.001746
532.220098	1.001634
532.581396	1.001261
532.942638	1.001964
533.303824	1.000728
533.664953	1.001668
534.026025	1.001030
534.387040	1.000879
534.747999	1.001701
535.108902	1.001572
535.469748	1.001023
535.830537	1.000552
536.191270	1.001270
536.551947	1.000611
536.912567	1.001573
537.273131	1.001794
537.633638	1.000772
537.994089	1.000999
538.354483	1.002009
538.714821	1.001574
539.075103	1.000979
539.435328	1.001435
539.795497	1.001086
540.155609	1.000638
540.515665	1.001089
540.875665	1.000750
541.235609	1.001564
541.595496	1.000218
541.955328	1.000753
542.315102	1.001043
542.674821	1.001243
543.034483	1.000392
543.394090	1.000606
543.753640	1.001579
544.113134	1.001988
544.472571	1.001460
544.831953	1.001478
545.191278	1.001172
545.550548	1.001505
545.909761	1.000610
546.268918	1.001452
546.628019	1.001936
546.987064	1.000858
547.346053	1.000997
547.704986	1.001456
548.063863	1.001322
548.422684	1.001524
548.781449	1.001510
549.140158	1.000629
549.498811	1.001327
549.857408	1.001353
550.215949	1.001129
550.574434	1.001019
550.932864	1.001063
551.291237	1.001197
551.649555	1.001641
552.007817	1.001226
552.366022	1.001080
552.724173	1.002019
553.082267	1.001679
553.440305	1.000822
553.798288	1.001395
554.156215	1.000653
554.514086	1.000982
554.871902	1.001022
555.229661	1.001112
555.587365	1.001149
555.945014	1.002047
556.302606	1.001407
556.660143	1.001470
557.017625	1.001165
557.375050	1.001310
557.732421	1.001331
558.089735	1.001371
558.446994	1.001429
558.804197	1.001838
559.161345	1.001942
559.518437	1.001869
559.875474	1.000920
560.232455	1.000998
560.589381	1.001722
560.946251	1.000203
561.303065	1.001226
561.659825	1.001306
562.016528	1.001297
562.373177	1.000948
562.729770	1.001083
563.086307	1.001036
563.442789	1.001261
563.799216	1.000904
564.155587	1.000996
564.511904	1.000527
564.868164	1.000847
565.224370	1.001542
565.580520	1.001905
565.936615	1.000620
566.292654	1.000907
566.648638	1.001294
567.004567	1.000993
567.360441	1.001654
567.716260	1.001402
568.072023	1.001817
568.427732	1.001030
568.783385	1.001354
569.138982	1.000890
569.494525	1.000856
569.850013	1.001513
570.205445	1.001172
570.560823	1.001127
570.916145	1.000920
571.271412	1.000930
571.626625	1.001290
571.981782	1.001004
572.336884	1.001096
572.691931	1.001274
573.046923	1.000567
573.401860	1.001187
573.756743	1.000617
574.111570	1.001432
574.466342	1.001458
574.821059	1.001442
575.175722	1.000478
575.530330	1.001082
575.884882	1.000905
576.239380	1.001262
576.593823	1.000768
576.948211	1.001251
577.302544	1.000330
577.656823	1.001004
578.011047	1.001262
578.365216	1.001036
578.719330	0.999678
579.073389	1.001265
579.427394	1.001324
579.781344	1.001579
580.135239	1.000964
580.489080	1.000914
580.842866	1.000943
581.196597	1.000550
581.550273	1.000598
581.903895	1.001040
582.257463	1.000805
582.610975	1.000573
582.964434	1.001482
583.317837	1.002180
583.671186	1.000888
584.024481	1.000531
584.377721	1.000965
584.730906	1.000639
585.084037	1.000936
585.437113	1.000445
585.790135	1.000587
586.143103	1.000409
586.496016	1.001590
586.848874	1.000464
587.201679	1.000966
587.554428	1.001035
587.907124	1.000331
588.259765	1.000634
588.612352	1.001332
588.964884	1.001756
589.317362	1.001246
589.669786	1.001432
590.022155	1.001147
590.374470	1.000423
590.726731	1.000270
591.078937	1.000096
591.431090	1.000444
591.783188	1.000245
592.135232	1.001077
592.487222	1.001081
592.839157	1.000654
593.191038	1.001381
593.542866	1.000492
593.894639	1.001473
594.246358	1.000901
594.598022	1.000666
594.949633	1.001425
595.301190	1.000458
595.652692	1.000951
596.004141	1.001141
596.355535	1.000828
596.706876	1.000818
597.058162	1.001014
597.409395	1.000506
597.760573	1.001171
598.111698	1.000947
598.462768	1.000015
598.813785	1.000663
599.164748	1.000935
599.515657	1.000715
599.866511	1.000713
600.217312	0.999745
600.568060	1.000705
600.918753	1.000742
601.269392	1.001285
601.619978	1.000138
601.970510	1.000380
602.320988	1.000685
602.671412	1.000857
603.021783	1.000625
603.372100	1.001135
603.722363	1.001074
604.072572	1.000665
604.422728	1.000917
604.772830	1.000831
605.122878	1.000450
605.472872	1.000507
605.822813	0.999932
606.172701	1.000356
606.522534	1.001018
606.872314	1.000678
607.222041	1.000378
607.571714	1.000914
607.921333	0.999864
608.270899	1.000754
608.620411	1.000972
608.969870	1.000883
609.319276	1.000265
609.668627	1.000336
610.017926	0.999780
610.367171	0.999791
610.716362	1.000764
611.065500	1.000218
611.414585	1.000584
611.763616	1.000728
612.112594	0.999774
612.461518	1.000391
612.810389	1.000970
613.159207	1.000556
613.507971	1.000222
613.856682	1.000610
614.205340	1.001746
614.553945	0.999869
614.902496	1.000126
615.250994	1.000333
615.599439	1.001615
615.947830	1.000302
616.296169	1.000979
616.644454	0.999621
616.992686	1.000732
617.340864	1.000476
617.688990	1.000810
618.037063	1.000932
618.385082	1.000341
618.733048	1.000742
619.080961	1.001230
619.428821	1.002110
619.776628	1.000212
620.124382	1.000121
620.472083	0.999562
620.819731	1.000021
621.167326	1.000487
621.514868	1.000140
621.862357	1.000697
622.209793	1.000581
622.557176	0.999224
622.904506	0.999920
623.251783	0.999693
623.599007	1.000921
623.946179	1.000825
624.293297	0.999940
624.640363	1.000743
624.987376	0.999406
625.334336	1.000740
625.681243	1.000439
626.028097	1.000533
626.374899	1.000429
626.721647	1.000779
627.068343	1.000817
627.414987	1.000370
627.761577	0.999913
628.108115	1.000310
628.454600	1.000894
628.801032	1.000112
629.147412	1.000483
629.493739	0.999668
629.840014	1.000631
630.186236	1.000626
630.532405	0.999701
630.878521	1.000327
631.224585	1.000482
631.570597	1.000239
631.916556	1.000376
632.262462	1.000210
632.608316	1.000877
632.954117	0.999509
633.299866	1.000179
633.645562	1.000433
633.991206	1.000255
634.336797	1.000956
634.682336	1.000038
635.027823	1.000430
635.373257	1.000506
635.718639	1.000407
636.063968	0.999666
636.409245	1.000097
636.754470	1.000177
637.099642	1.001103
637.444762	1.000071
637.789829	0.999879
638.134845	1.000050
638.479808	0.999974
638.824719	1.000664
639.169577	0.999290
639.514383	0.999883
639.859137	0.999470
640.203839	1.000217
640.548489	1.000262
640.893086	0.999644
641.237632	1.000922
641.582125	0.999959
641.926566	0.999819
642.270955	0.999999
642.615292	1.000701
642.959576	1.000104
643.303809	1.000501
643.647990	1.000096
643.992118	1.000086
644.336195	1.000608
644.680219	0.999862
645.024192	1.000788
645.368112	0.999524
645.711981	1.000249
646.055797	0.999842
646.399562	0.999271
646.743274	0.999063
647.086935	1.000151
647.430544	0.999579
647.774101	0.999298
648.117606	1.000308
648.461059	0.999662
648.804460	0.999337
649.147810	1.000316
649.491108	1.000048
649.834354	1.000410
650.177548	1.000550
650.520690	0.999994
650.863781	0.999698
651.206820	1.000014
651.549807	0.999715
651.892742	1.000073
652.235626	0.999956
652.578458	1.000010
652.921238	1.000405
653.263967	1.000966
653.606644	1.000824
653.949269	1.000908
654.291843	0.999826
654.634365	0.999560
654.976836	0.999762
655.319255	0.999715
655.661622	1.000230
656.003938	1.000185
656.346203	1.000120
656.688416	1.000809
657.030577	1.000701
657.372687	0.999797
657.714746	0.999371
658.056753	0.999644
658.398708	1.000124
658.740612	1.001181
659.082465	1.000677
659.424266	1.000503
659.766016	0.999576
660.107715	0.999209
660.449362	0.999573
660.790958	0.999431
661.132503	0.999135
661.473996	0.999561
661.815438	0.999511
662.156829	0.999360
662.498168	1.000345
662.839456	0.999917
663.180693	1.000917
663.521879	1.000602
663.863013	1.000328
664.204097	1.000267
664.545129	0.999680
664.886110	1.000114
665.227040	0.998731
665.567918	0.999575
665.908746	0.999623
666.249522	0.999241
666.590248	0.999853
666.930922	1.000785
667.271545	1.000126
667.612118	1.000555
667.952639	0.999442
668.293109	1.000160
668.633528	1.000082
668.973896	1.000838
669.314213	0.999683
669.654480	0.999373
669.994695	1.000365
670.334859	1.000288
670.674973	0.998707
671.015035	0.999106
671.355047	0.999253
671.695008	0.999768
672.034918	0.999841
672.374777	0.999384
672.714585	1.000024
673.054342	1.000542
673.394049	0.999519
673.733705	0.999303
674.073310	0.999375
674.412864	0.999736
674.752368	0.999434
675.091820	1.000620
675.431223	0.999979
675.770574	0.999091
676.109875	0.999819
676.449125	0.999382
676.788324	0.999692
677.127473	1.000596
677.466571	1.000227
677.805619	0.999651
678.144616	0.999542
678.483562	0.999294
678.822458	0.998667
679.161303	1.000630
679.500098	0.999946
679.838842	1.000320
680.177535	1.000927
680.516179	1.001147
680.854771	1.000440
681.193314	0.999356
681.531805	0.999190
681.870247	0.999847
682.208638	0.999254
682.546978	0.998847
682.885268	0.999300
683.223508	0.999935
683.561697	0.998816
683.899836	0.999918
684.237925	1.000410
684.575963	0.999415
684.913951	0.998687
685.251889	1.000062
685.589776	0.998855
685.927614	0.999755
686.265401	0.999687
686.603137	0.999965
686.940824	0.999611
687.278460	0.998962
687.616046	0.999667
687.953582	0.999175
688.291068	0.999587
688.628504	1.000200
688.965889	0.999077
689.303224	0.999121
689.640510	1.000193
689.977745	0.999586
690.314930	1.000250
690.652065	1.000178
690.989150	1.000679
691.326185	0.999734
691.663170	1.000405
692.000105	1.000142
692.336990	0.999298
692.673825	1.000232
693.010610	1.001097
693.347345	0.998753
693.684030	0.999952
694.020665	1.000410
694.357251	0.999367
694.693786	0.999723
695.030272	1.001401
695.366707	0.999943
695.703093	0.999363
696.039429	0.999992
696.375716	0.998421
696.711952	0.998821
697.048139	1.000439
697.384276	0.999172
697.720363	0.998610
698.056400	1.000025
698.392388	0.998802
698.728326	1.000003
699.064214	1.001696
699.400053	1.001682
699.735842	1.001170
700.071581	1.000826
700.407270	0.999672
700.742910	0.999705
701.078501	1.000510
701.414042	0.999789
701.749533	0.999768
702.084974	0.999634
702.420366	0.999470
702.755709	0.999276
703.091002	0.999834
703.426246	0.999264
703.761440	1.000206
704.096584	0.999671
704.431679	0.999488
704.766725	0.999397
705.101721	0.998977
705.436668	0.999291
705.771565	0.999414
706.106413	0.999075
706.441212	0.999585
706.775961	0.998898
707.110661	1.000141
707.445311	0.999511
707.779913	1.000094
708.114465	1.000290
708.448967	0.999705
708.783421	0.999648
709.117825	0.999859
709.452180	1.000099
709.786485	1.000349
710.120742	0.999186
710.454949	0.999198
710.789107	1.000116
711.123216	0.999822
711.457275	1.000653
711.791286	0.998835
712.125247	0.999189
712.459159	0.998042
712.793023	0.999709
713.126837	1.000314
713.460602	0.998734
713.794318	1.000521
714.127985	0.999725
714.461602	0.999910
714.795171	0.998479
715.128691	0.999438
715.462162	0.999046
715.795584	0.999178
716.128957	1.000480
716.462281	1.000120
716.795556	0.999671
717.128782	0.999698
717.461960	1.000221
717.795088	0.999135
718.128167	1.000558
718.461198	0.999950
718.794180	0.999854
719.127113	0.999930
719.459997	1.000600
719.792833	1.000198
720.125619	0.998298
720.458357	1.000070
720.791046	1.001009
721.123686	0.999599
721.456278	0.999967
721.788821	0.998713
722.121315	0.998408
722.453761	0.999934
722.786158	0.998960
723.118506	1.000022
723.450805	0.999745
723.783056	0.999819
724.115259	0.999575
724.447412	1.000587
724.779518	1.000394
725.111574	0.999604
725.443582	0.999582
725.775542	0.999693
726.107453	1.000250
726.439315	0.999714
726.771129	0.999074
727.102895	0.999331
727.434612	0.998769
727.766281	0.999056
728.097901	0.999438
728.429473	1.001116
728.760996	1.000150
729.092471	0.999062
729.423897	0.998648
729.755276	0.999387
730.086606	0.999300
730.417887	0.999921
730.749120	0.999184
731.080305	1.000026
731.411442	0.999596
731.742530	1.000604
732.073570	0.999347
732.404562	0.999176
732.735506	0.999732
733.066401	1.000200
733.397249	1.000578
733.728048	0.999730
734.058798	1.000184
734.389501	1.000645
734.720156	0.999202
735.050762	1.000010
735.381320	1.000756
735.711831	1.000938
736.042293	1.000670
736.372707	1.000231
736.703073	1.000621
737.033391	1.001281
737.363661	1.000746
737.693883	0.999962
738.024056	1.000443
738.354182	0.999862
738.684260	0.999712
739.014290	0.999687
739.344272	0.999142
739.674207	1.000360
740.004093	0.999546
740.333931	1.000227
740.663722	0.998979
740.993464	1.000098
741.323159	0.999836
741.652806	0.999761
741.982405	1.000262
742.311956	0.998722
742.641460	0.999406
742.970915	0.999792
743.300323	1.000203
743.629683	1.000316
743.958996	1.000147
744.288260	1.000618
744.617477	0.999740
744.946647	0.999934
745.275768	0.999626
745.604842	1.000109
745.933869	1.000451
746.262847	0.999786
746.591778	0.999295
746.920662	1.000049
747.249498	1.000441
747.578286	0.999601
747.907027	0.998592
748.235720	1.000972
748.564365	0.998518
748.892963	1.000080
749.221514	0.997951
749.550017	0.998725
749.878473	0.999010
750.206881	0.999998
750.535242	0.999871
750.863555	1.000719
751.191821	1.000788
751.520039	0.999816
751.848210	1.000032
752.176334	0.998928
752.504411	0.999959
752.832440	1.000384
753.160421	1.000227
753.488356	1.000205
753.816243	1.000553
754.144082	1.000236
754.471875	1.001044
754.799620	1.000286
755.127318	0.999639
755.454969	0.999134
755.782572	0.999391
756.110129	0.999648
756.437638	1.000682
756.765100	0.999030
757.092515	0.999518
757.419882	1.000260
757.747203	1.000081
758.074477	0.999464
758.401703	1.000032
758.728882	0.999298
759.056014	1.000655
759.383099	0.998501
759.710138	1.000293
760.037129	1.000457
760.364073	0.999736
760.690970	0.999295
761.017820	1.001742
761.344623	1.000363
761.671379	1.000365
761.998088	0.999942
762.324751	0.999418
762.651366	1.000534
762.977935	0.999783
763.304456	0.998823
763.630931	0.999809
763.957359	0.998950
764.283740	1.000600
764.610074	1.000180
764.936362	1.000185
765.262602	0.998990
765.588796	0.999865
765.914943	1.001207
766.241044	0.999999
766.567097	1.000517
766.893104	1.000659
767.219064	0.998093
767.544978	0.999428
767.870845	1.001484
768.196665	0.999316
768.522438	1.000205
768.848165	0.999714
769.173846	1.000990
769.499479	1.001395
769.825066	0.998813
770.150607	1.000601
770.476101	0.999423
770.801548	1.000029
771.126949	0.999981
771.452303	0.998508
771.777611	1.000571
772.102872	1.000621
772.428087	0.999750
772.753256	1.000011
773.078378	1.000587
773.403453	1.000634
773.728482	1.000266
774.053465	1.000230
774.378401	1.000838
774.703291	0.999187
775.028135	1.000223
775.352932	1.001091
775.677683	0.999600
776.002388	0.999388
776.327046	0.998975
776.651658	0.999078
776.976224	1.000799
777.300743	1.000072
777.625216	0.998787
777.949643	0.998499
778.274024	1.000068
778.598359	1.000367
778.922647	1.000928
779.246889	1.000269
779.571086	1.001271
779.895236	0.999901
780.219339	0.999974
780.543397	1.001066
780.867409	1.000107
781.191374	0.999653
781.515294	1.000128
781.839167	0.999585
782.162995	1.001001
782.486776	1.000662
782.810511	1.000084
783.134201	0.999692
783.457844	0.999122
783.781441	0.999800
784.104993	0.999986
784.428498	0.999993
784.751958	0.999848
785.075372	1.000262
785.398739	0.999557
785.722061	1.000804
786.045337	0.999730
786.368568	0.999995
786.691752	1.000709
787.014891	0.999672
787.337983	1.000133
787.661030	1.000383
787.984031	1.000246
788.306987	0.999938
788.629897	1.000467
788.952760	1.000329
789.275579	1.000508
789.598351	0.999323
789.921078	1.000231
790.243759	0.999825
790.566395	1.000329
790.888984	1.000447
791.211529	0.999940
791.534027	1.000178
791.856480	0.999842
792.178888	1.000861
792.501249	0.999836
792.823566	1.000401
793.145836	1.000116
793.468062	1.000210
793.790241	1.000011
794.112375	0.999425
794.434464	0.999016
794.756507	0.999622
795.078505	1.000914
795.400457	1.001430
795.722364	1.000505
796.044226	0.998956
796.366042	1.000546
796.687812	1.000198
797.009538	1.000267
797.331218	0.998951
797.652852	1.001312
797.974442	1.000212
798.295986	0.998420
798.617484	1.000329
798.938938	0.999068
799.260346	1.000288
799.581709	1.001506
799.903026	0.999858
800.224299	0.999892
800.545526	0.999580
800.866708	1.000229
801.187845	1.000655
801.508936	1.000664
801.829983	1.001333
802.150984	0.999128
802.471940	1.000973
802.792851	1.000384
803.113717	1.000390
803.434538	0.999969
803.755314	1.000933
804.076045	1.001234
804.396731	1.000009
804.717372	1.000137
805.037967	1.001254
805.358518	1.000776
805.679024	1.001516
805.999485	1.000342
806.319901	1.001635
806.640272	1.000074
806.960598	0.999681
807.280879	1.000738
807.601115	1.001427
807.921306	1.000682
808.241453	1.000131
808.561554	0.999187
808.881611	0.999339
809.201623	1.000568
809.521590	0.999428
809.841513	0.998843
810.161390	0.999594
810.481223	1.000477
810.801011	1.001462
811.120755	1.000090
811.440453	1.000162
811.760107	0.998382
812.079716	0.999552
812.399281	1.000274
812.718801	1.000275
813.038276	0.999753
813.357707	0.999363
813.677093	0.998558
813.996434	0.999832
814.315731	1.001187
814.634983	0.999599
814.954191	0.999078
815.273354	1.001173
815.592473	0.999828
815.911547	0.999466
816.230577	1.000153
816.549562	1.000286
816.868502	1.002099
817.187399	1.000108
817.506250	1.000323
817.825058	1.000154
818.143821	1.000548
818.462539	0.999367
818.781213	1.000371
819.099843	0.998461
819.418429	0.999882
819.736970	1.000717
820.055466	0.999647
820.373919	1.000699
820.692327	0.999792
821.010691	0.999597
821.329011	1.000990
821.647286	1.000407
821.965517	0.999954
822.283704	1.001137
822.601847	1.000609
822.919945	1.000560
823.237999	1.000612
823.556010	1.000206
823.873976	1.000766
824.191897	0.999704
824.509775	1.000546
824.827609	1.000106
825.145398	1.000147
825.463144	1.000632
825.780845	1.000771
826.098502	1.000326
826.416116	1.000352
826.733685	1.001019
827.051210	1.000362
827.368692	0.999948
827.686129	0.999540
828.003522	1.000881
828.320872	0.999431
828.638177	1.000030
828.955439	1.000495
829.272656	1.000546
829.589830	1.000721
829.906960	1.000635
830.224046	0.999961
830.541088	1.000299
830.858086	1.000212
831.175041	1.000349
831.491952	1.000737
831.808819	1.000679
832.125642	1.001325
832.442421	0.999230
832.759157	1.000357
833.075849	0.999890
833.392497	0.999515
833.709101	1.000089
834.025662	1.000806
834.342179	1.000263
834.658653	1.000868
834.975083	0.999886
835.291469	1.000339
835.607811	1.000460
835.924110	0.998541
836.240366	1.000339
836.556578	1.001073
836.872746	1.000781
837.188871	0.999469
837.504952	0.999052
837.820990	1.001295
838.136984	1.000298
838.452935	1.000225
838.768842	1.000070
839.084706	0.999585
839.400526	1.000166
839.716303	1.000084
840.032037	0.999206
840.347727	0.999867
840.663373	1.000609
840.978977	0.999968
841.294537	0.999987
841.610054	1.000925
841.925527	1.000928
842.240957	1.000850
842.556344	0.999854
842.871687	1.000687
843.186987	1.001349
843.502244	1.000008
843.817458	1.000146
844.132629	0.999548
844.447756	1.001324
844.762840	0.999882
845.077881	0.998946
845.392879	0.999756
845.707833	1.001223
846.022745	1.000225
846.337613	1.000479
846.652438	1.000938
846.967221	0.999032
847.281960	0.999599
847.596656	1.000973
847.911309	0.999806
848.225919	1.000096
848.540485	0.999836
848.855009	0.999135
849.169490	0.999633
849.483928	1.000512
849.798323	1.000772
850.112675	0.999777
850.426984	0.999784
850.741251	1.000911
851.055474	1.000025
851.369654	0.999688
851.683792	1.000445
851.997887	1.000527
852.311938	1.000405
852.625947	1.000605
852.939914	1.000045
853.253837	1.000185
853.567718	1.001766
853.881555	1.001349
854.195350	0.999722
854.509103	1.001132
854.822812	0.999944
855.136479	1.000517
855.450103	1.001111
855.763685	0.999434
856.077224	0.999619
856.390720	0.999738
856.704173	1.001257
857.017584	1.000580
857.330953	0.999874
857.644278	1.001684
857.957561	1.000305
858.270802	0.999108
858.584000	0.999195
858.897155	1.000046
859.210268	0.999556
859.523339	0.999489
859.836367	0.999731
860.149352	0.999593
860.462295	0.998698
860.775195	0.999906
861.088054	0.999254
861.400869	0.999197
861.713642	1.000546
862.026373	0.999661
862.339062	1.000530
862.651708	0.999712
862.964312	1.000050
863.276873	1.000116
863.589392	1.000280
863.901869	1.000261
864.214303	1.001370
864.526696	1.000970
864.839045	1.000603
865.151353	1.000462
865.463619	1.000796
865.775842	1.000179
866.088023	1.000740
866.400162	1.000058
866.712258	1.000704
867.024313	1.001882
867.336325	1.000147
867.648296	0.999981
867.960224	1.001781
868.272110	0.999833
868.583954	0.999976
868.895755	0.999974
869.207515	1.000217
869.519233	0.999081
869.830909	1.000114
870.142542	0.999881
870.454134	1.000060
870.765684	1.000515
871.077191	0.998837
871.388657	1.001760
871.700081	0.999079
872.011463	0.999997
872.322803	0.999075
872.634101	0.999792
872.945357	1.000078
873.256571	1.000450
873.567744	0.999839
873.878874	0.998758
874.189963	0.999039
874.501010	1.000183
874.812015	0.999797
875.122979	1.001485
875.433900	1.000489
875.744780	0.999774
876.055618	1.000745
876.366415	1.000420
876.677169	1.000607
876.987882	1.000382
877.298554	1.000368
877.609183	1.000200
877.919771	1.001305
878.230317	1.000293
878.540822	1.000207
878.851285	1.000200
879.161707	0.999831
879.472087	1.000977
879.782425	1.001042
880.092722	0.999995
880.402977	1.000573
880.713191	1.002026
881.023363	1.001144
881.333494	1.000909
881.643583	1.000852
881.953631	1.000408
882.263637	1.001052
882.573602	1.000818
882.883526	1.001260
883.193408	1.000302
883.503248	1.000650
883.813048	0.999871
884.122806	1.000703
884.432522	1.000074
884.742197	1.002021
885.051831	0.999727
885.361424	1.000302
885.670975	1.000392
885.980485	1.000787
886.289954	1.000259
886.599382	1.001473
886.908768	1.000505
887.218113	1.000760
887.527417	0.999763
887.836680	1.000540
888.145901	1.001293
888.455082	0.999865
888.764221	1.000020
889.073319	1.000428
889.382376	0.999622
889.691392	1.001316
890.000366	0.999851
890.309300	1.000944
890.618193	1.000047
890.927044	0.999395
891.235855	0.999231
891.544625	1.000109
891.853353	1.000212
892.162041	1.001675
892.470687	1.000668
892.779293	0.999521
893.087858	0.999954
893.396381	1.000702
893.704864	0.999453
894.013306	1.000171
894.321707	1.000486
894.630068	0.999831
894.938387	1.000176
895.246665	1.000782
895.554903	1.000456
895.863100	1.000214
896.171256	1.001006
896.479371	1.000063
896.787446	1.000294
897.095480	1.000379
897.403473	1.000636
897.711425	0.999803
898.019336	1.000509
898.327207	0.999309
898.635038	1.000766
898.942827	0.999807
899.250576	0.999195
899.558284	0.999527
899.865952	0.999468
900.173579	1.001083
900.481165	1.000187
900.788711	1.001820
901.096216	0.999869
901.403681	0.999475
901.711105	1.001830
902.018489	1.000832
902.325832	1.000253
902.633135	1.000979
902.940397	1.000364
903.247619	1.001589
903.554800	0.999905
903.861941	0.999657
904.169041	1.002274
904.476101	1.001512
904.783121	0.999437
905.090100	1.001607
905.397039	1.001078
905.703938	1.000791
906.010796	1.000331
906.317614	1.001100
906.624391	1.000191
906.931129	1.000712
907.237826	0.999621
907.544483	1.001044
907.851099	0.999312
908.157675	1.000293
908.464211	0.999970
908.770707	1.000681
909.077163	0.999065
909.383578	0.999634
909.689954	1.000210
909.996289	1.000470
910.302584	0.999806
910.608839	1.001209
910.915054	1.000078
911.221229	1.000316
911.527363	1.000836
911.833458	1.000826
912.139513	0.998822
912.445527	0.998255
912.751502	0.998953
913.057436	1.000171
913.363331	1.000114
913.669186	1.000939
913.975000	1.000143
914.280775	1.000703
914.586510	1.000223
914.892205	0.998448
915.197859	1.000849
915.503475	0.999770
915.809050	1.001056
916.114585	0.999797
916.420081	1.000503
916.725536	1.000222
917.030952	1.001153
917.336328	1.000446
917.641665	1.000109
917.946961	0.999846
918.252218	1.000601
918.557435	1.000279
918.862612	1.000565
919.167750	1.001203
919.472848	0.999766
919.777906	0.999882
920.082925	1.001442
920.387904	1.000793
920.692843	0.999807
920.997743	0.999971
921.302603	1.000326
921.607423	0.999448
921.912204	0.999291
922.216946	0.999762
922.521647	0.999298
922.826310	0.999595
923.130932	0.999988
923.435516	1.000432
923.740059	0.999772
924.044564	0.999506
924.349028	1.000491
924.653454	0.999840
924.957840	1.002631
925.262186	1.000558
925.566493	0.998676
925.870761	0.999235
926.174989	1.000631
926.479178	1.000901
926.783328	1.001417
927.087438	0.999893
927.391509	0.999139
927.695541	1.001623
927.999533	0.999332
928.303486	1.000334
928.607400	1.001143
928.911275	0.999219
929.215110	1.000143
929.518906	1.000480
929.822663	0.999398
930.126381	1.000549
930.430060	1.000735
930.733699	1.001436
931.037299	0.999730
931.340861	1.001713
931.644383	1.000093
931.947866	0.999699
932.251309	1.000121
932.554714	1.000915
932.858080	0.999363
933.161407	0.999634
933.464694	1.000603
933.767943	1.000263
934.071153	1.000213
934.374323	1.000524
934.677455	0.999950
934.980548	1.000702
935.283602	0.998430
935.586617	1.000277
935.889593	1.000152
936.192530	0.999800
936.495428	0.999646
936.798287	1.000829
937.101108	1.000548
937.403890	0.998925
937.706632	1.000104
938.009336	1.000191
938.312002	1.000855
938.614628	0.999742
938.917216	1.001573
939.219765	0.998514
939.522275	1.001200
939.824747	1.000742
940.127179	1.000020
940.429573	1.000082
940.731929	0.999663
941.034246	1.000441
941.336524	0.999758
941.638763	1.000257
941.940964	0.999910
942.243126	0.999926
942.545250	0.999077
942.847335	1.000600
943.149381	0.999224
943.451389	0.999534
943.753359	0.999651
944.055290	1.001067
944.357182	1.000889
944.659036	0.997828
944.960851	0.999162
945.262628	0.999855
945.564367	1.001058
945.866067	1.000695
946.167729	1.002335
946.469352	1.000523
946.770937	0.999431
947.072484	1.000506
947.373992	1.000913
947.675462	0.999503
947.976893	0.999466
948.278286	0.998947
948.579641	1.001531
948.880958	1.000104
949.182236	0.999579
949.483476	1.000001
949.784678	0.999967
950.085841	1.000230
950.386967	0.998558
950.688054	1.000260
950.989103	0.999964
951.290114	0.999904
951.591087	0.999743
951.892021	1.000314
952.192917	0.999536
952.493776	1.000004
952.794596	0.999851
953.095378	0.999319
953.396122	1.000279
953.696828	0.999034
953.997496	1.000435
954.298126	1.000326
954.598718	1.001361
954.899272	1.001472
955.199788	0.999325
955.500266	1.000714
955.800706	1.001196
956.101108	1.000561
956.401472	1.001261
956.701798	1.001107
957.002087	0.999835
957.302337	0.999548
957.602550	1.001065
957.902724	1.000561
958.202861	0.999714
958.502960	1.000953
958.803022	0.998169
959.103045	1.000440
959.403031	1.000231
959.702979	0.999346
960.002889	0.999931
960.302762	0.998626
960.602596	0.999908
960.902393	0.999572
961.202153	1.000987
961.501875	1.000075
961.801559	0.998860
962.101205	0.999894
962.400814	1.000192
962.700385	1.000918
962.999918	1.000497
963.299414	1.000133
963.598873	1.000562
963.898293	1.000193
964.197677	0.999996
964.497022	1.000109
964.796331	1.001275
965.095601	1.000001
965.394835	0.999456
965.694030	0.999758
965.993189	1.000436
966.292309	1.000486
966.591393	0.999612
966.890439	0.999918
967.189447	0.999744
967.488419	1.000513
967.787353	0.999400
968.086249	1.000187
968.385108	0.999802
968.683930	1.001128
968.982714	1.000979
969.281462	1.000758
969.580172	1.000389
969.878844	1.000494
970.177480	1.000783
970.476078	1.000257
970.774639	1.000964
971.073162	1.000828
971.371649	0.999546
971.670098	1.001131
971.968510	1.002197
972.266885	1.000228
972.565223	0.999497
972.863524	1.000480
973.161788	1.000490
973.460014	1.002347
973.758204	0.999016
974.056356	1.000233
974.354471	0.997328
974.652550	1.000386
974.950591	0.999514
975.248595	0.999889
975.546563	1.000748
975.844493	1.001341
976.142386	1.000116
976.440243	1.000727
976.738062	0.999473
977.035845	1.001950
977.333590	0.999882
977.631299	0.999875
977.928971	0.999769
978.226606	0.999132
978.524204	0.999313
978.821765	1.001419
979.119290	0.999226
979.416777	0.999512
979.714228	0.999332
980.011642	1.000333
980.309020	1.000563
980.606360	1.000081
980.903664	1.002247
981.200931	1.000289
981.498162	0.998303
981.795356	0.998944
982.092513	0.999197
982.389633	1.000625
982.686717	0.999538
982.983764	0.999730
983.280775	1.000293
983.577749	1.000638
983.874686	1.000279
984.171587	0.998910
984.468451	1.000806
984.765279	1.000754
985.062070	0.999175
985.358824	1.000009
985.655543	0.998980
985.952224	0.999858
986.248869	0.999023
986.545478	1.000542
986.842050	1.000756
987.138586	0.998262
987.435086	1.000793
987.731549	1.000648
988.027975	1.000595
988.324366	0.999497
988.620719	1.000367
988.917037	0.998090
989.213318	1.000445
989.509563	0.999985
989.805772	1.000818
990.101944	1.000688
990.398080	0.999062
990.694180	1.000642
990.990244	0.999223
991.286271	1.000438
991.582262	0.999484
991.878217	0.999759
992.174136	0.999795
992.470019	1.000958
992.765865	1.000117
993.061676	1.000309
993.357450	1.000119
993.653188	0.998379
993.948890	0.999640
994.244556	0.999769
994.540186	1.000091
994.835780	0.998361
995.131337	0.999703
995.426859	0.999466
995.722345	1.000862
996.017795	1.000919
996.313208	1.000455
996.608586	0.998891
996.903928	1.000718
997.199234	1.000451
997.494504	1.000107
997.789738	1.000246
998.084936	0.998450
998.380099	1.001321
998.675225	0.999805
998.970316	1.002132
999.265371	1.001004
999.560390	1.000187
999.855373	1.000591
1000.150320	1.000482
1000.445232	0.999460
1000.740108	1.000480
1001.034948	1.000808
1001.329752	1.001197
1001.624521	1.000289
1001.919254	0.999691
1002.213951	1.000075
1002.508613	0.999950
1002.803239	1.001246
1003.097829	0.999659
1003.392384	1.001563
1003.686903	1.000090
1003.981386	0.999472
1004.275834	1.000208
1004.570246	0.999748
1004.864623	1.000262
1005.158964	1.001116
1005.453270	1.001403
1005.747540	1.000405
1006.041775	1.000092
1006.335974	1.000850
1006.630138	1.000012
1006.924266	1.001061
1007.218359	1.001255
1007.512416	0.999690
1007.806438	1.001106
1008.100425	1.001087
1008.394376	1.000820
1008.688292	1.000464
1008.982172	1.001646
1009.276017	1.000192
1009.569827	0.999780
1009.863602	0.999701
1010.157341	1.000288
1010.451045	1.000116
1010.744714	1.001207
1011.038347	1.000354
1011.331945	1.000304
1011.625508	1.000526
1011.919036	0.999078
1012.212528	1.000423
1012.505986	0.999415
1012.799408	1.000546
1013.092795	1.000753
1013.386147	1.000120
1013.679464	1.000914
1013.972745	0.999302
1014.265992	0.999131
1014.559204	1.000461
1014.852380	0.999862
1015.145521	0.999834
1015.438628	1.000435
1015.731699	1.000034
1016.024736	1.000503
1016.317737	1.000550
1016.610703	1.000574
1016.903635	1.001727
1017.196531	0.999466
1017.489393	1.000671
1017.782219	0.999761
1018.075011	0.999752
1018.367768	0.999324
1018.660490	1.000723
1018.953177	1.000723
1019.245829	1.000723
