Dividing Wavelength (nm)	Counts (n)	Blue Motor Position (mm): 0.000000	Red Motor Position (mm): 46.500000	
326.493990	1.001564
326.888308	1.001564
327.282561	1.001564
327.676750	1.000235
328.070874	1.000106
328.464933	0.999692
328.858929	1.000028
329.252859	1.000315
329.646726	0.999070
330.040528	1.000340
330.434265	1.000434
330.827938	1.001227
331.221547	1.001570
331.615091	1.000162
332.008571	1.000722
332.401986	1.000203
332.795338	1.000793
333.188625	0.999452
333.581847	1.000605
333.975006	0.999962
334.368100	1.000194
334.761129	0.999211
335.154095	1.000979
335.546996	0.999810
335.939833	0.999173
336.332606	0.999934
336.725315	1.001338
337.117960	1.001421
337.510540	0.999353
337.903056	1.000934
338.295508	0.998935
338.687896	1.000993
339.080220	1.000458
339.472480	1.001157
339.864676	0.999482
340.256807	1.000890
340.648875	1.000880
341.040879	1.000779
341.432818	1.000791
341.824694	0.999348
342.216506	1.002067
342.608253	1.000088
342.999937	1.000337
343.391557	0.999771
343.783113	0.999323
344.174605	0.999468
344.566033	1.000658
344.957397	0.998716
345.348697	1.000651
345.739934	1.000269
346.131106	0.999540
346.522215	0.999432
346.913260	1.000669
347.304241	1.000171
347.695159	1.001589
348.086012	0.998746
348.476802	0.999817
348.867528	1.001209
349.258191	0.999097
349.648789	1.000396
350.039324	0.999680
350.429796	1.001179
350.820203	1.001073
351.210548	1.000332
351.600828	1.000329
351.991045	0.999859
352.381198	1.000886
352.771288	0.999377
353.161314	1.000770
353.551276	1.000419
353.941175	1.000511
354.331010	0.999780
354.720782	1.000867
355.110490	0.999938
355.500135	1.000960
355.889717	0.999979
356.279235	0.999638
356.668689	0.999834
357.058080	0.999803
357.447408	1.001378
357.836672	0.999911
358.225873	1.000504
358.615010	0.999915
359.004084	1.000208
359.393095	1.000421
359.782043	0.999509
360.170927	1.000654
360.559748	1.001300
360.948505	1.000326
361.337199	1.000067
361.725830	1.001213
362.114398	0.999559
362.502903	1.000424
362.891344	1.000794
363.279722	1.000634
363.668037	1.001371
364.056289	1.001228
364.444478	1.001002
364.832603	1.000977
365.220665	1.001166
365.608665	0.999183
365.996601	1.000478
366.384474	1.001093
366.772284	1.001446
367.160031	0.998565
367.547715	0.999720
367.935336	1.000858
368.322893	0.999877
368.710388	0.999695
369.097820	1.000357
369.485189	0.999524
369.872495	0.999232
370.259738	0.998261
370.646918	1.001003
371.034035	1.001047
371.421090	0.999475
371.808081	1.000518
372.195010	1.001410
372.581875	1.000355
372.968678	0.999738
373.355418	1.000241
373.742096	0.999080
374.128710	1.000092
374.515262	0.999047
374.901751	1.000832
375.288177	0.999767
375.674540	1.000465
376.060841	1.000025
376.447079	1.000790
376.833254	1.000505
377.219367	0.999733
377.605417	1.000260
377.991404	1.001484
378.377329	1.000240
378.763191	0.999820
379.148991	1.000892
379.534727	1.000971
379.920402	1.000680
380.306013	1.000531
380.691563	1.000221
381.077049	0.999441
381.462474	1.000652
381.847835	1.001242
382.233134	1.000215
382.618371	1.000594
383.003545	1.000383
383.388657	1.000525
383.773706	1.000822
384.158693	1.000211
384.543618	1.000441
384.928480	1.000771
385.313280	1.000456
385.698017	1.001130
386.082692	1.001569
386.467305	1.000687
386.851856	1.001030
387.236344	1.001181
387.620770	1.000376
388.005133	1.001127
388.389435	1.001048
388.773674	1.000696
389.157851	1.001358
389.541965	1.001161
389.926018	1.000102
390.310008	1.002440
390.693936	1.000411
391.077802	1.001738
391.461606	1.000891
391.845348	1.001835
392.229027	1.002058
392.612645	1.001002
392.996200	1.001674
393.379694	1.000966
393.763125	1.002148
394.146494	1.001663
394.529801	1.000889
394.913047	1.002617
395.296230	1.001478
395.679351	1.000632
396.062410	1.001261
396.445408	1.001332
396.828343	1.000898
397.211217	1.000676
397.594028	1.000903
397.976778	1.000284
398.359466	1.000430
398.742092	1.001611
399.124656	1.000683
399.507158	1.001530
399.889598	1.001059
400.271977	1.000919
400.654294	1.002253
401.036549	1.002082
401.418742	1.001869
401.800874	1.001425
402.182944	1.000741
402.564952	1.000665
402.946898	1.002103
403.328783	1.001049
403.710606	1.001776
404.092367	1.001223
404.474067	1.001367
404.855705	1.001175
405.237282	1.001695
405.618797	1.000321
406.000250	1.000823
406.381642	1.001538
406.762972	1.001274
407.144240	1.001503
407.525447	1.001440
407.906593	1.001760
408.287677	1.000750
408.668700	1.002054
409.049661	1.000395
409.430560	1.001105
409.811399	1.001080
410.192176	1.001350
410.572891	1.001156
410.953545	1.000582
411.334138	1.000996
411.714669	1.001979
412.095139	1.001048
412.475547	1.001488
412.855894	1.001129
413.236180	1.001843
413.616405	1.002676
413.996568	1.002261
414.376670	1.001358
414.756711	1.000822
415.136691	1.000554
415.516609	1.002009
415.896466	1.001048
416.276262	0.999940
416.655997	1.001964
417.035670	1.000478
417.415283	1.000945
417.794834	1.001145
418.174324	1.001077
418.553753	1.000975
418.933121	1.000610
419.312428	1.001000
419.691674	1.000988
420.070859	1.001399
420.449983	1.001126
420.829045	1.000904
421.208047	1.002320
421.586988	1.002604
421.965867	1.001031
422.344686	1.001725
422.723444	1.001439
423.102141	1.001536
423.480777	1.001611
423.859352	1.001187
424.237866	1.000221
424.616319	1.000840
424.994712	1.000354
425.373044	1.001626
425.751314	1.001708
426.129524	1.000719
426.507673	1.001587
426.885762	1.001690
427.263789	1.001801
427.641756	1.001088
428.019662	1.002460
428.397508	1.001283
428.775292	0.999965
429.153016	1.000800
429.530679	1.001889
429.908282	1.001536
430.285824	1.000845
430.663305	1.000479
431.040726	1.001271
431.418086	1.002202
431.795385	1.001631
432.172624	1.000974
432.549802	1.001738
432.926920	1.001145
433.303977	1.000393
433.680974	1.001280
434.057910	1.001343
434.434786	1.001442
434.811601	1.001088
435.188355	1.000820
435.565050	1.000942
435.941683	1.001605
436.318257	1.001683
436.694770	1.000904
437.071222	1.001667
437.447614	1.000668
437.823946	1.001799
438.200218	1.001579
438.576429	1.001562
438.952580	1.001522
439.328670	1.001100
439.704700	1.001428
440.080670	1.001058
440.456580	1.000893
440.832429	1.000859
441.208218	1.001533
441.583947	1.001664
441.959616	1.001480
442.335224	1.001786
442.710773	1.002079
443.086261	1.000990
443.461689	1.001032
443.837057	1.001416
444.212365	1.001398
444.587612	1.000792
444.962800	1.000966
445.337927	1.002135
445.712995	1.001646
446.088002	1.002100
446.462949	1.001915
446.837837	1.001205
447.212664	1.001595
447.587431	1.001854
447.962139	1.000356
448.336786	1.001239
448.711374	1.001941
449.085901	1.000775
449.460369	1.002153
449.834776	1.000576
450.209124	1.001287
450.583412	1.001485
450.957640	1.001405
451.331808	1.000963
451.705917	1.001613
452.079965	1.000688
452.453954	1.001334
452.827883	1.000216
453.201752	1.001209
453.575562	1.001781
453.949311	1.001397
454.323001	1.001891
454.696632	1.001455
455.070202	1.000985
455.443713	1.001440
455.817164	1.001904
456.190556	1.001304
456.563888	1.001522
456.937160	1.001614
457.310373	1.001010
457.683526	1.001335
458.056619	1.001579
458.429653	1.001663
458.802628	1.000442
459.175542	1.000675
459.548398	1.001894
459.921194	1.001378
460.293930	1.001255
460.666607	1.001209
461.039224	1.000024
461.411782	1.001296
461.784280	1.000938
462.156719	1.002218
462.529099	1.001798
462.901419	1.001157
463.273680	1.001142
463.645882	1.001010
464.018024	1.001282
464.390106	1.001384
464.762130	1.002330
465.134094	1.001167
465.505999	1.002013
465.877845	1.000988
466.249631	1.001704
466.621358	1.001797
466.993026	1.001523
467.364634	1.001895
467.736184	1.001957
468.107674	1.001175
468.479105	1.001255
468.850477	1.002452
469.221790	1.001513
469.593043	1.001664
469.964238	1.002803
470.335373	1.001401
470.706449	1.001628
471.077467	1.001830
471.448425	1.001232
471.819324	1.002101
472.190164	1.001055
472.560945	1.001805
472.931667	1.001285
473.302330	1.000618
473.672934	1.002360
474.043479	1.001747
474.413965	1.001631
474.784393	1.001891
475.154761	1.001346
475.525070	1.001095
475.895321	1.001532
476.265513	1.001157
476.635645	1.001848
477.005719	1.002744
477.375734	1.000397
477.745691	1.001666
478.115588	1.001687
478.485427	1.002067
478.855207	1.001535
479.224928	1.001489
479.594591	1.001879
479.964194	1.001819
480.333739	1.002335
480.703226	1.001438
481.072653	1.002207
481.442022	1.001272
481.811333	1.001448
482.180584	1.001981
482.549777	1.000805
482.918912	1.001406
483.287988	1.001336
483.657005	1.001364
484.025964	1.002412
484.394864	1.002070
484.763706	1.002209
485.132489	1.001606
485.501213	1.001219
485.869879	1.001744
486.238487	1.002495
486.607036	1.001641
486.975527	1.001436
487.343959	1.001280
487.712333	1.001877
488.080648	1.001954
488.448905	1.001212
488.817104	1.002016
489.185244	1.001806
489.553326	1.001912
489.921350	1.001505
490.289315	1.001566
490.657222	1.001875
491.025070	1.002036
491.392861	1.002377
491.760593	1.001885
492.128267	1.001650
492.495883	1.001655
492.863440	1.002017
493.230939	1.001998
493.598380	1.001490
493.965763	1.001697
494.333088	1.001786
494.700354	1.001313
495.067563	1.001684
495.434713	1.001673
495.801805	1.002575
496.168839	1.002119
496.535815	1.001474
496.902733	1.001133
497.269593	1.001624
497.636395	1.001561
498.003139	1.001650
498.369825	1.001974
498.736453	1.001550
499.103023	1.001299
499.469535	1.001556
499.835989	1.001040
500.202385	1.001982
500.568723	1.001650
500.935003	1.001820
501.301226	1.001648
501.667390	1.001698
502.033497	1.001850
502.399546	1.001697
502.765537	1.001329
503.131470	1.001402
503.497345	1.001166
503.863163	1.002306
504.228923	1.002185
504.594625	1.001566
504.960269	1.002801
505.325856	1.001959
505.691385	1.001589
506.056856	1.001055
506.422270	1.001856
506.787625	1.001533
507.152924	1.001579
507.518164	1.001571
507.883347	1.001961
508.248472	1.001232
508.613540	1.001471
508.978550	1.001555
509.343503	1.001853
509.708398	1.001344
510.073236	1.001301
510.438016	1.001871
510.802738	1.001389
511.167403	1.002013
511.532010	1.001899
511.896561	1.001760
512.261053	1.003067
512.625488	1.001195
512.989866	1.002133
513.354186	1.001664
513.718449	1.001205
514.082655	1.001845
514.446803	1.001513
514.810894	1.001559
515.174927	1.001640
515.538904	1.001398
515.902822	1.001938
516.266684	1.001653
516.630488	1.002034
516.994235	1.001179
517.357925	1.001106
517.721558	1.001745
518.085133	1.001188
518.448651	1.002683
518.812112	1.001676
519.175516	1.001328
519.538863	1.001541
519.902152	1.001350
520.265385	1.001310
520.628560	1.001645
520.991678	1.001962
521.354739	1.001868
521.717743	1.002126
522.080690	1.002242
522.443580	1.001345
522.806413	1.001709
523.169189	1.001628
523.531908	1.001051
523.894569	1.002177
524.257174	1.002101
524.619722	1.001863
524.982213	1.001558
525.344647	1.001606
525.707025	1.001019
526.069345	1.000871
526.431608	1.001219
526.793815	1.001761
527.155964	1.001021
527.518057	1.001425
527.880093	1.002007
528.242072	1.001612
528.603995	1.001342
528.965860	1.002732
529.327669	1.001700
529.689421	1.001223
530.051117	1.002017
530.412755	1.001702
530.774337	1.002018
531.135862	1.001781
531.497331	1.001231
531.858743	1.002343
532.220098	1.002123
532.581396	1.001896
532.942638	1.001768
533.303824	1.001341
533.664953	1.002322
534.026025	1.001656
534.387040	1.001460
534.747999	1.001668
535.108902	1.002029
535.469748	1.001493
535.830537	1.001668
536.191270	1.001571
536.551947	1.001274
536.912567	1.001842
537.273131	1.002688
537.633638	1.001366
537.994089	1.001317
538.354483	1.002066
538.714821	1.002202
539.075103	1.001644
539.435328	1.001661
539.795497	1.001880
540.155609	1.001321
540.515665	1.001501
540.875665	1.001175
541.235609	1.001474
541.595496	1.001935
541.955328	1.000908
542.315102	1.001898
542.674821	1.001813
543.034483	1.000820
543.394090	1.000838
543.753640	1.001811
544.113134	1.001441
544.472571	1.000697
544.831953	1.002191
545.191278	1.001219
545.550548	1.002180
545.909761	1.000751
546.268918	1.001696
546.628019	1.001805
546.987064	1.001277
547.346053	1.002090
547.704986	1.001691
548.063863	1.001829
548.422684	1.001576
548.781449	1.002280
549.140158	1.001423
549.498811	1.001083
549.857408	1.001667
550.215949	1.001515
550.574434	1.000863
550.932864	1.001392
551.291237	1.001733
551.649555	1.001586
552.007817	1.001797
552.366022	1.001405
552.724173	1.001825
553.082267	1.001721
553.440305	1.001534
553.798288	1.001545
554.156215	1.001706
554.514086	1.001626
554.871902	1.001769
555.229661	1.001521
555.587365	1.001572
555.945014	1.001912
556.302606	1.000912
556.660143	1.001552
557.017625	1.001916
557.375050	1.001516
557.732421	1.001320
558.089735	1.001918
558.446994	1.002820
558.804197	1.002662
559.161345	1.002408
559.518437	1.001912
559.875474	1.001359
560.232455	1.001722
560.589381	1.001241
560.946251	1.001291
561.303065	1.001305
561.659825	1.001909
562.016528	1.001206
562.373177	1.001888
562.729770	1.001086
563.086307	1.001620
563.442789	1.000806
563.799216	1.001733
564.155587	1.000829
564.511904	1.001693
564.868164	1.000935
565.224370	1.001199
565.580520	1.001232
565.936615	1.001365
566.292654	1.001510
566.648638	1.001751
567.004567	1.001173
567.360441	1.001747
567.716260	1.001734
568.072023	1.001225
568.427732	1.001387
568.783385	1.001784
569.138982	1.000942
569.494525	1.001753
569.850013	1.001661
570.205445	1.001057
570.560823	1.001569
570.916145	1.000990
571.271412	1.001405
571.626625	1.001229
571.981782	1.001089
572.336884	1.002186
572.691931	1.001374
573.046923	1.000478
573.401860	1.001336
573.756743	1.001375
574.111570	1.001797
574.466342	1.002061
574.821059	1.001857
575.175722	1.001903
575.530330	1.001882
575.884882	1.000871
576.239380	1.002057
576.593823	1.001412
576.948211	1.001239
577.302544	1.001153
577.656823	1.001758
578.011047	1.001142
578.365216	1.001311
578.719330	1.000468
579.073389	1.001961
579.427394	1.001256
579.781344	1.001941
580.135239	1.000960
580.489080	1.001004
580.842866	1.002206
581.196597	1.001474
581.550273	1.000490
581.903895	1.001768
582.257463	1.000728
582.610975	1.001378
582.964434	1.001657
583.317837	1.002458
583.671186	1.001220
584.024481	1.001126
584.377721	1.001712
584.730906	1.001625
585.084037	1.001326
585.437113	1.001150
585.790135	1.001334
586.143103	1.001082
586.496016	1.001871
586.848874	1.000774
587.201679	1.001260
587.554428	1.001168
587.907124	1.001791
588.259765	1.001254
588.612352	1.002562
588.964884	1.001281
589.317362	1.001470
589.669786	1.001715
590.022155	1.002040
590.374470	1.000735
590.726731	1.000862
591.078937	1.000721
591.431090	1.000897
591.783188	1.001381
592.135232	1.001919
592.487222	1.002018
592.839157	1.001159
593.191038	1.001598
593.542866	1.001391
593.894639	1.001952
594.246358	1.001240
594.598022	1.001149
594.949633	1.001665
595.301190	1.002083
595.652692	1.001223
596.004141	1.002044
596.355535	1.001074
596.706876	1.000787
597.058162	1.001486
597.409395	1.001024
597.760573	1.000799
598.111698	1.001788
598.462768	1.000934
598.813785	1.001077
599.164748	1.001665
599.515657	1.001278
599.866511	1.001228
600.217312	1.001125
600.568060	1.001362
600.918753	1.001308
601.269392	1.001604
601.619978	1.001063
601.970510	1.001185
602.320988	1.002057
602.671412	1.001437
603.021783	1.001578
603.372100	1.002131
603.722363	1.002358
604.072572	1.001419
604.422728	1.001268
604.772830	1.000863
605.122878	1.001178
605.472872	1.001435
605.822813	1.001020
606.172701	1.001368
606.522534	1.001827
606.872314	1.002139
607.222041	1.001279
607.571714	1.002081
607.921333	1.001143
608.270899	1.001324
608.620411	1.001548
608.969870	1.002247
609.319276	1.001599
609.668627	1.001292
610.017926	1.000804
610.367171	1.000616
610.716362	1.001098
611.065500	1.001020
611.414585	1.001942
611.763616	1.000676
612.112594	1.000981
612.461518	1.000909
612.810389	1.001099
613.159207	1.001386
613.507971	1.000447
613.856682	1.001641
614.205340	1.001363
614.553945	1.000609
614.902496	1.000952
615.250994	1.001560
615.599439	1.001031
615.947830	1.001055
616.296169	1.001494
616.644454	1.001078
616.992686	1.001817
617.340864	1.000872
617.688990	1.001445
618.037063	1.001386
618.385082	1.001253
618.733048	1.000969
619.080961	1.001633
619.428821	1.001427
619.776628	1.000901
620.124382	1.001586
620.472083	1.000103
620.819731	1.001706
621.167326	1.000683
621.514868	1.000451
621.862357	1.000986
622.209793	1.001458
622.557176	0.999672
622.904506	1.000652
623.251783	1.000208
623.599007	1.001895
623.946179	1.001155
624.293297	1.000557
624.640363	1.001160
624.987376	1.000680
625.334336	1.001578
625.681243	1.001644
626.028097	1.001801
626.374899	1.001158
626.721647	1.001645
627.068343	1.001678
627.414987	1.000844
627.761577	1.001212
628.108115	1.001394
628.454600	1.001025
628.801032	1.000676
629.147412	1.000613
629.493739	1.000769
629.840014	1.000624
630.186236	1.000702
630.532405	1.000880
630.878521	1.000938
631.224585	1.001365
631.570597	1.001102
631.916556	1.001326
632.262462	1.001657
632.608316	1.001092
632.954117	1.001126
633.299866	1.000103
633.645562	1.001355
633.991206	1.000299
634.336797	1.001826
634.682336	1.000135
635.027823	1.002058
635.373257	1.002035
635.718639	1.001409
636.063968	1.001033
636.409245	1.000516
636.754470	1.000954
637.099642	1.001449
637.444762	1.001267
637.789829	1.000818
638.134845	1.000619
638.479808	1.001009
638.824719	1.001789
639.169577	0.999700
639.514383	1.000654
639.859137	1.000837
640.203839	1.001136
640.548489	1.000827
640.893086	1.000910
641.237632	1.001522
641.582125	0.999416
641.926566	1.000716
642.270955	1.000761
642.615292	1.000889
642.959576	1.001071
643.303809	1.000995
643.647990	1.000444
643.992118	1.001176
644.336195	1.001277
644.680219	1.001034
645.024192	1.000853
645.368112	1.000644
645.711981	1.001069
646.055797	1.000514
646.399562	1.001201
646.743274	0.999995
647.086935	1.000744
647.430544	1.000178
647.774101	1.000340
648.117606	1.001089
648.461059	1.000145
648.804460	1.000415
649.147810	1.000786
649.491108	1.000959
649.834354	1.000065
650.177548	1.001087
650.520690	1.000506
650.863781	1.000182
651.206820	1.000882
651.549807	1.000080
651.892742	1.000560
652.235626	1.000842
652.578458	1.000771
652.921238	1.000047
653.263967	1.001275
653.606644	1.001499
653.949269	1.000378
654.291843	1.000695
654.634365	1.000270
654.976836	1.001048
655.319255	1.000664
655.661622	1.001300
656.003938	0.999892
656.346203	1.001136
656.688416	1.001056
657.030577	1.001319
657.372687	1.000485
657.714746	1.000334
658.056753	1.000566
658.398708	1.001380
658.740612	1.001082
659.082465	1.000622
659.424266	1.000646
659.766016	1.000330
660.107715	1.000011
660.449362	0.999829
660.790958	1.000575
661.132503	0.999189
661.473996	1.000495
661.815438	1.000658
662.156829	1.000225
662.498168	1.000722
662.839456	1.000501
663.180693	1.000624
663.521879	1.000303
663.863013	1.000910
664.204097	1.001348
664.545129	1.000892
664.886110	1.000465
665.227040	0.999843
665.567918	0.999814
665.908746	0.999664
666.249522	0.999585
666.590248	1.000002
666.930922	1.000488
667.271545	1.000347
667.612118	0.999876
667.952639	0.999787
668.293109	1.000689
668.633528	0.999430
668.973896	1.000465
669.314213	0.999321
669.654480	1.000448
669.994695	1.000330
670.334859	1.000177
670.674973	0.999508
671.015035	1.000073
671.355047	0.999574
671.695008	1.000721
672.034918	0.999060
672.374777	1.000559
672.714585	1.000202
673.054342	1.000044
673.394049	0.999295
673.733705	0.999122
674.073310	0.999220
674.412864	0.999512
674.752368	0.999776
675.091820	1.001148
675.431223	1.000016
675.770574	0.999345
676.109875	0.999858
676.449125	1.000405
676.788324	0.999347
677.127473	0.999957
677.466571	0.999215
677.805619	0.999101
678.144616	0.999443
678.483562	0.999353
678.822458	0.999446
679.161303	1.001127
679.500098	0.999423
679.838842	1.000155
680.177535	1.000161
680.516179	0.999511
680.854771	1.000267
681.193314	0.999402
681.531805	0.999413
681.870247	0.998663
682.208638	0.998956
682.546978	0.998226
682.885268	0.999461
683.223508	0.998756
683.561697	0.998464
683.899836	0.999418
684.237925	1.000487
684.575963	0.999104
684.913951	0.998186
685.251889	0.998376
685.589776	0.999160
685.927614	0.998395
686.265401	0.998193
686.603137	0.998776
686.940824	0.997466
687.278460	0.997734
687.616046	0.997418
687.953582	0.996317
688.291068	0.996993
688.628504	0.998638
688.965889	0.997526
689.303224	0.997305
689.640510	0.997949
689.977745	0.998291
690.314930	0.998530
690.652065	0.997532
690.989150	0.998252
691.326185	0.998119
691.663170	0.998602
692.000105	0.998046
692.336990	0.998195
692.673825	0.998314
693.010610	0.998404
693.347345	0.997303
693.684030	0.998212
694.020665	0.998305
694.357251	0.998038
694.693786	0.997901
695.030272	0.999114
695.366707	0.997669
695.703093	0.996963
696.039429	0.997465
696.375716	0.997175
696.711952	0.998060
697.048139	0.997711
697.384276	0.997388
697.720363	0.996783
698.056400	0.996977
698.392388	0.996448
698.728326	0.997538
699.064214	0.998629
699.400053	0.998011
699.735842	0.997680
700.071581	0.996985
700.407270	0.996875
700.742910	0.997602
701.078501	0.997780
701.414042	0.996789
701.749533	0.996673
702.084974	0.997387
702.420366	0.996140
702.755709	0.996056
703.091002	0.997892
703.426246	0.996883
703.761440	0.996231
704.096584	0.996444
704.431679	0.996993
704.766725	0.995889
705.101721	0.996069
705.436668	0.996032
705.771565	0.996284
706.106413	0.996080
706.441212	0.996069
706.775961	0.994924
707.110661	0.995645
707.445311	0.996144
707.779913	0.996587
708.114465	0.996012
708.448967	0.995283
708.783421	0.994653
709.117825	0.995015
709.452180	0.995441
709.786485	0.994445
710.120742	0.993506
710.454949	0.994893
710.789107	0.994422
711.123216	0.994019
711.457275	0.993583
711.791286	0.992359
712.125247	0.992414
712.459159	0.992174
712.793023	0.993748
713.126837	0.992805
713.460602	0.993125
713.794318	0.993546
714.127985	0.992497
714.461602	0.992892
714.795171	0.993113
715.128691	0.992926
715.462162	0.993937
715.795584	0.992472
716.128957	0.993099
716.462281	0.993595
716.795556	0.993842
717.128782	0.993018
717.461960	0.993639
717.795088	0.992751
718.128167	0.994420
718.461198	0.994309
718.794180	0.993553
719.127113	0.993888
719.459997	0.993628
719.792833	0.994158
720.125619	0.993976
720.458357	0.995035
720.791046	0.994147
721.123686	0.993846
721.456278	0.993433
721.788821	0.993291
722.121315	0.992981
722.453761	0.993772
722.786158	0.993221
723.118506	0.993354
723.450805	0.993111
723.783056	0.992746
724.115259	0.991170
724.447412	0.992984
724.779518	0.993164
725.111574	0.992279
725.443582	0.992320
725.775542	0.991708
726.107453	0.991993
726.439315	0.991299
726.771129	0.990786
727.102895	0.991146
727.434612	0.990683
727.766281	0.990725
728.097901	0.990956
728.429473	0.991716
728.760996	0.989959
729.092471	0.989319
729.423897	0.990626
729.755276	0.990758
730.086606	0.989319
730.417887	0.990424
730.749120	0.990219
731.080305	0.988937
731.411442	0.988867
731.742530	0.990612
732.073570	0.989129
732.404562	0.988080
732.735506	0.988322
733.066401	0.988277
733.397249	0.989723
733.728048	0.989207
734.058798	0.989720
734.389501	0.989635
734.720156	0.989657
735.050762	0.990779
735.381320	0.989642
735.711831	0.991572
736.042293	0.990951
736.372707	0.990148
736.703073	0.989256
737.033391	0.991044
737.363661	0.989424
737.693883	0.989568
738.024056	0.989328
738.354182	0.990042
738.684260	0.988311
739.014290	0.988656
739.344272	0.988772
739.674207	0.988572
740.004093	0.987802
740.333931	0.987849
740.663722	0.987256
740.993464	0.987789
741.323159	0.986922
741.652806	0.987304
741.982405	0.987562
742.311956	0.987517
742.641460	0.987398
742.970915	0.987307
743.300323	0.987736
743.629683	0.988701
743.958996	0.989078
744.288260	0.988146
744.617477	0.988123
744.946647	0.988303
745.275768	0.987209
745.604842	0.986930
745.933869	0.989588
746.262847	0.988157
746.591778	0.985772
746.920662	0.988363
747.249498	0.988125
747.578286	0.987446
747.907027	0.986856
748.235720	0.987051
748.564365	0.987488
748.892963	0.986171
749.221514	0.986150
749.550017	0.987100
749.878473	0.985817
750.206881	0.986338
750.535242	0.987151
750.863555	0.987387
751.191821	0.987301
751.520039	0.987586
751.848210	0.986966
752.176334	0.986881
752.504411	0.986372
752.832440	0.986913
753.160421	0.988259
753.488356	0.987599
753.816243	0.986914
754.144082	0.986723
754.471875	0.987405
754.799620	0.987472
755.127318	0.986684
755.454969	0.986559
755.782572	0.986062
756.110129	0.987456
756.437638	0.986774
756.765100	0.986400
757.092515	0.985670
757.419882	0.986475
757.747203	0.986517
758.074477	0.985107
758.401703	0.985505
758.728882	0.984596
759.056014	0.984852
759.383099	0.984969
759.710138	0.985957
760.037129	0.985795
760.364073	0.984763
760.690970	0.985368
761.017820	0.986403
761.344623	0.985592
761.671379	0.984440
761.998088	0.983824
762.324751	0.982405
762.651366	0.982077
762.977935	0.977681
763.304456	0.973375
763.630931	0.970607
763.957359	0.973450
764.283740	0.977437
764.610074	0.976897
764.936362	0.977759
765.262602	0.978752
765.588796	0.981765
765.914943	0.983430
766.241044	0.983588
766.567097	0.984412
766.893104	0.984803
767.219064	0.984774
767.544978	0.985290
767.870845	0.986877
768.196665	0.987080
768.522438	0.985959
768.848165	0.986285
769.173846	0.988031
769.499479	0.987387
769.825066	0.987429
770.150607	0.988182
770.476101	0.987294
770.801548	0.986513
771.126949	0.987354
771.452303	0.986510
771.777611	0.987791
772.102872	0.988106
772.428087	0.987634
772.753256	0.987500
773.078378	0.987201
773.403453	0.987797
773.728482	0.990015
774.053465	0.988508
774.378401	0.989283
774.703291	0.989197
775.028135	0.989075
775.352932	0.989885
775.677683	0.989440
776.002388	0.990044
776.327046	0.987449
776.651658	0.989279
776.976224	0.988458
777.300743	0.989543
777.625216	0.989941
777.949643	0.988660
778.274024	0.990183
778.598359	0.989623
778.922647	0.990071
779.246889	0.988625
779.571086	0.990261
779.895236	0.990179
780.219339	0.989138
780.543397	0.988961
780.867409	0.988830
781.191374	0.988432
781.515294	0.988973
781.839167	0.988679
782.162995	0.989151
782.486776	0.988873
782.810511	0.989681
783.134201	0.988268
783.457844	0.987766
783.781441	0.988926
784.104993	0.988952
784.428498	0.989457
784.751958	0.988602
785.075372	0.989285
785.398739	0.990111
785.722061	0.991216
786.045337	0.987708
786.368568	0.989899
786.691752	0.989717
787.014891	0.988476
787.337983	0.987200
787.661030	0.986613
787.984031	0.986430
788.306987	0.983514
788.629897	0.985346
788.952760	0.983968
789.275579	0.984842
789.598351	0.985469
789.921078	0.987776
790.243759	0.987232
790.566395	0.986595
790.888984	0.987994
791.211529	0.988137
791.534027	0.987708
791.856480	0.988744
792.178888	0.989322
792.501249	0.990239
792.823566	0.988716
793.145836	0.988336
793.468062	0.990756
793.790241	0.989335
794.112375	0.988149
794.434464	0.988294
794.756507	0.988343
795.078505	0.990017
795.400457	0.988630
795.722364	0.987855
796.044226	0.986267
796.366042	0.986625
796.687812	0.986077
797.009538	0.987018
797.331218	0.986219
797.652852	0.987513
797.974442	0.987680
798.295986	0.985690
798.617484	0.986490
798.938938	0.987158
799.260346	0.988435
799.581709	0.987628
799.903026	0.988952
800.224299	0.988119
800.545526	0.990020
800.866708	0.989727
801.187845	0.990824
801.508936	0.990974
801.829983	0.990471
802.150984	0.988883
802.471940	0.990080
802.792851	0.989742
803.113717	0.990690
803.434538	0.989567
803.755314	0.990104
804.076045	0.990399
804.396731	0.990150
804.717372	0.989459
805.037967	0.989665
805.358518	0.989910
805.679024	0.990793
805.999485	0.989556
806.319901	0.991102
806.640272	0.989641
806.960598	0.989537
807.280879	0.989646
807.601115	0.990417
807.921306	0.989514
808.241453	0.987627
808.561554	0.988831
808.881611	0.989263
809.201623	0.989509
809.521590	0.989574
809.841513	0.988396
810.161390	0.988109
810.481223	0.989701
810.801011	0.990446
811.120755	0.990593
811.440453	0.989010
811.760107	0.988964
812.079716	0.989130
812.399281	0.989581
812.718801	0.989480
813.038276	0.989842
813.357707	0.989478
813.677093	0.989543
813.996434	0.989614
814.315731	0.990237
814.634983	0.989479
814.954191	0.988967
815.273354	0.989681
815.592473	0.988375
815.911547	0.988243
816.230577	0.988352
816.549562	0.988008
816.868502	0.990246
817.187399	0.988660
817.506250	0.986613
817.825058	0.986773
818.143821	0.986233
818.462539	0.986148
818.781213	0.985514
819.099843	0.983020
819.418429	0.982865
819.736970	0.980388
820.055466	0.978225
820.373919	0.973545
820.692327	0.968836
821.010691	0.966158
821.329011	0.962161
821.647286	0.952558
821.965517	0.944027
822.283704	0.944526
822.601847	0.942545
822.919945	0.938191
823.237999	0.935342
823.556010	0.938550
823.873976	0.943276
824.191897	0.946898
824.509775	0.950460
824.827609	0.957581
825.145398	0.958381
825.463144	0.960166
825.780845	0.959570
826.098502	0.957367
826.416116	0.952379
826.733685	0.950384
827.051210	0.947781
827.368692	0.948104
827.686129	0.950588
828.003522	0.957180
828.320872	0.960518
828.638177	0.966736
828.955439	0.972132
829.272656	0.976681
829.589830	0.976602
829.906960	0.979895
830.224046	0.981023
830.541088	0.983114
830.858086	0.982305
831.175041	0.984532
831.491952	0.983995
831.808819	0.983736
832.125642	0.983688
832.442421	0.979696
832.759157	0.978827
833.075849	0.972589
833.392497	0.966825
833.709101	0.959972
834.025662	0.960113
834.342179	0.961626
834.658653	0.968706
834.975083	0.971365
835.291469	0.974164
835.607811	0.977763
835.924110	0.979182
836.240366	0.983736
836.556578	0.986291
836.872746	0.986284
837.188871	0.986900
837.504952	0.988682
837.820990	0.988738
838.136984	0.988870
838.452935	0.989533
838.768842	0.991006
839.084706	0.988833
839.400526	0.986916
839.716303	0.981523
840.032037	0.979855
840.347727	0.978227
840.663373	0.980733
840.978977	0.981544
841.294537	0.984273
841.610054	0.986705
841.925527	0.990027
842.240957	0.988491
842.556344	0.990001
842.871687	0.991709
843.186987	0.992578
843.502244	0.992250
843.817458	0.992450
844.132629	0.992267
844.447756	0.993689
844.762840	0.993472
845.077881	0.993135
845.392879	0.993068
845.707833	0.994117
846.022745	0.995437
846.337613	0.994649
846.652438	0.995340
846.967221	0.994510
847.281960	0.994240
847.596656	0.996701
847.911309	0.994454
848.225919	0.995783
848.540485	0.994961
848.855009	0.994838
849.169490	0.995367
849.483928	0.995506
849.798323	0.995773
850.112675	0.995396
850.426984	0.994355
850.741251	0.995552
851.055474	0.995876
851.369654	0.994791
851.683792	0.996627
851.997887	0.995557
852.311938	0.995308
852.625947	0.996037
852.939914	0.994608
853.253837	0.995660
853.567718	0.995995
853.881555	0.996370
854.195350	0.994616
854.509103	0.994602
854.822812	0.994454
855.136479	0.994707
855.450103	0.994469
855.763685	0.993896
856.077224	0.994728
856.390720	0.995215
856.704173	0.995865
857.017584	0.995043
857.330953	0.994819
857.644278	0.994856
857.957561	0.995034
858.270802	0.994056
858.584000	0.993357
858.897155	0.994239
859.210268	0.994836
859.523339	0.993337
859.836367	0.994834
860.149352	0.994772
860.462295	0.993409
860.775195	0.994570
861.088054	0.994524
861.400869	0.993939
861.713642	0.994229
862.026373	0.994430
862.339062	0.994910
862.651708	0.993253
862.964312	0.994622
863.276873	0.994785
863.589392	0.995296
863.901869	0.993549
864.214303	0.994711
864.526696	0.993110
864.839045	0.993598
865.151353	0.991178
865.463619	0.993527
865.775842	0.993595
866.088023	0.993524
866.400162	0.992697
866.712258	0.994265
867.024313	0.993793
867.336325	0.991737
867.648296	0.993852
867.960224	0.993846
868.272110	0.992013
868.583954	0.992546
868.895755	0.993257
869.207515	0.993546
869.519233	0.992093
869.830909	0.993714
870.142542	0.993461
870.454134	0.992736
870.765684	0.993354
871.077191	0.991043
871.388657	0.993608
871.700081	0.991399
872.011463	0.992116
872.322803	0.992169
872.634101	0.991037
872.945357	0.991395
873.256571	0.992381
873.567744	0.991639
873.878874	0.992039
874.189963	0.989544
874.501010	0.990846
874.812015	0.990237
875.122979	0.990602
875.433900	0.990330
875.744780	0.991754
876.055618	0.989960
876.366415	0.989599
876.677169	0.989002
876.987882	0.990750
877.298554	0.990343
877.609183	0.988325
877.919771	0.988472
878.230317	0.986916
878.540822	0.986971
878.851285	0.984802
879.161707	0.983507
879.472087	0.980440
879.782425	0.977866
880.092722	0.970326
880.402977	0.963273
880.713191	0.958221
881.023363	0.953902
881.333494	0.952076
881.643583	0.947746
881.953631	0.945275
882.263637	0.944865
882.573602	0.947339
882.883526	0.949614
883.193408	0.952250
883.503248	0.954495
883.813048	0.958624
884.122806	0.963681
884.432522	0.967622
884.742197	0.972960
885.051831	0.973758
885.361424	0.975574
885.670975	0.976597
885.980485	0.981030
886.289954	0.982161
886.599382	0.984004
886.908768	0.984095
887.218113	0.985938
887.527417	0.987007
887.836680	0.987061
888.145901	0.987144
888.455082	0.987213
888.764221	0.988613
889.073319	0.989852
889.382376	0.989097
889.691392	0.989220
890.000366	0.988369
890.309300	0.990145
890.618193	0.989818
890.927044	0.987474
891.235855	0.989500
891.544625	0.988357
891.853353	0.989894
892.162041	0.988166
892.470687	0.987538
892.779293	0.985730
893.087858	0.985079
893.396381	0.984571
893.704864	0.982535
894.013306	0.977463
894.321707	0.972283
894.630068	0.968784
894.938387	0.967890
895.246665	0.965836
895.554903	0.967525
895.863100	0.970213
896.171256	0.972651
896.479371	0.977504
896.787446	0.979906
897.095480	0.981334
897.403473	0.983469
897.711425	0.983952
898.019336	0.985880
898.327207	0.984904
898.635038	0.986226
898.942827	0.986706
899.250576	0.986618
899.558284	0.988926
899.865952	0.988926
900.173579	0.989239
900.481165	0.989255
900.788711	0.991291
901.096216	0.991260
901.403681	0.990434
901.711105	0.992583
902.018489	0.991166
902.325832	0.991066
902.633135	0.991931
902.940397	0.988293
903.247619	0.987651
903.554800	0.981589
903.861941	0.975072
904.169041	0.969863
904.476101	0.966488
904.783121	0.964556
905.090100	0.967768
905.397039	0.969451
905.703938	0.974273
906.010796	0.977639
906.317614	0.982330
906.624391	0.984356
906.931129	0.986107
907.237826	0.988582
907.544483	0.990403
907.851099	0.990920
908.157675	0.992755
908.464211	0.992784
908.770707	0.993304
909.077163	0.993997
909.383578	0.993946
909.689954	0.993098
909.996289	0.994518
910.302584	0.995570
910.608839	0.995516
910.915054	0.995485
911.221229	0.994738
911.527363	0.995479
911.833458	0.994648
912.139513	0.994941
912.445527	0.993292
912.751502	0.993834
913.057436	0.994518
913.363331	0.992937
913.669186	0.991464
913.975000	0.990203
914.280775	0.989608
914.586510	0.989027
914.892205	0.986087
915.197859	0.981452
915.503475	0.975375
915.809050	0.972544
916.114585	0.970514
916.420081	0.970091
916.725536	0.967549
917.030952	0.969373
917.336328	0.971506
917.641665	0.974199
917.946961	0.976951
918.252218	0.980553
918.557435	0.982558
918.862612	0.985748
919.167750	0.987962
919.472848	0.987675
919.777906	0.987660
920.082925	0.989654
920.387904	0.991962
920.692843	0.991439
920.997743	0.990707
921.302603	0.991994
921.607423	0.992486
921.912204	0.992888
922.216946	0.993223
922.521647	0.993130
922.826310	0.993998
923.130932	0.994497
923.435516	0.995887
923.740059	0.995400
924.044564	0.993422
924.349028	0.996097
924.653454	0.996656
924.957840	0.997901
925.262186	0.996805
925.566493	0.995132
925.870761	0.996625
926.174989	0.997082
926.479178	0.998423
926.783328	0.998627
927.087438	0.998151
927.391509	0.997445
927.695541	0.999903
927.999533	0.997797
928.303486	0.997885
928.607400	0.999174
928.911275	0.998328
929.215110	0.998176
929.518906	0.998481
929.822663	0.998232
930.126381	0.998509
930.430060	0.998183
930.733699	0.998519
931.037299	0.997793
931.340861	0.999689
931.644383	0.998404
931.947866	0.997222
932.251309	0.999749
932.554714	0.998487
932.858080	0.997828
933.161407	0.997975
933.464694	0.999318
933.767943	0.998065
934.071153	0.999192
934.374323	0.999753
934.677455	0.997545
934.980548	0.998324
935.283602	0.997865
935.586617	0.998416
935.889593	0.997490
936.192530	0.998290
936.495428	0.997931
936.798287	0.999281
937.101108	0.998171
937.403890	0.997911
937.706632	0.997845
938.009336	0.996558
938.312002	0.997620
938.614628	0.998295
938.917216	0.996234
939.219765	0.994453
939.522275	0.997680
939.824747	0.996624
940.127179	0.996492
940.429573	0.997108
940.731929	0.995924
941.034246	0.996969
941.336524	0.997063
941.638763	0.996905
941.940964	0.998013
942.243126	0.995780
942.545250	0.996471
942.847335	0.997440
943.149381	0.996662
943.451389	0.998147
943.753359	0.996716
944.055290	0.998976
944.357182	0.997767
944.659036	0.996470
944.960851	0.998067
945.262628	0.997806
945.564367	0.999085
945.866067	0.998275
946.167729	0.998493
946.469352	0.997900
946.770937	0.997569
947.072484	0.999262
947.373992	0.998277
947.675462	0.997950
947.976893	0.997954
948.278286	0.997547
948.579641	0.999343
948.880958	0.998306
949.182236	0.997535
949.483476	0.998455
949.784678	0.998629
950.085841	0.998260
950.386967	0.998115
950.688054	0.997581
950.989103	0.999313
951.290114	0.996282
951.591087	0.997572
951.892021	0.998970
952.192917	0.996709
952.493776	0.997546
952.794596	0.998356
953.095378	0.996773
953.396122	0.998070
953.696828	0.997178
953.997496	0.997959
954.298126	0.998955
954.598718	0.999000
954.899272	0.997831
955.199788	0.997021
955.500266	0.999665
955.800706	0.998212
956.101108	1.000316
956.401472	0.998937
956.701798	0.999360
957.002087	0.998356
957.302337	0.998488
957.602550	0.999753
957.902724	0.999267
958.202861	1.000821
958.502960	0.999879
958.803022	0.997899
959.103045	1.001610
959.403031	1.000678
959.702979	0.999268
960.002889	0.999466
960.302762	0.998916
960.602596	0.998748
960.902393	0.999146
961.202153	1.000770
961.501875	1.000312
961.801559	0.998292
962.101205	0.999341
962.400814	0.998818
962.700385	1.000047
962.999918	0.998585
963.299414	0.999430
963.598873	0.999214
963.898293	0.999215
964.197677	0.999180
964.497022	0.999919
964.796331	1.000620
965.095601	1.000162
965.394835	1.000239
965.694030	1.000775
965.993189	1.000647
966.292309	1.000085
966.591393	1.000421
966.890439	1.000734
967.189447	1.000381
967.488419	0.999856
967.787353	0.999326
968.086249	0.999933
968.385108	0.999818
968.683930	1.000297
968.982714	0.999899
969.281462	0.999201
969.580172	0.999693
969.878844	1.001528
970.177480	1.000067
970.476078	1.000652
970.774639	1.000547
971.073162	1.001140
971.371649	0.999969
971.670098	1.000331
971.968510	1.001367
972.266885	0.999822
972.565223	0.999521
972.863524	1.000001
973.161788	0.999808
973.460014	1.000658
973.758204	0.999399
974.056356	0.999384
974.354471	0.997215
974.652550	1.000670
974.950591	1.000316
975.248595	0.999250
975.546563	1.000047
975.844493	1.000679
976.142386	1.000932
976.440243	1.001886
976.738062	0.999887
977.035845	1.000629
977.333590	0.999857
977.631299	0.999858
977.928971	1.000690
978.226606	0.999788
978.524204	0.998928
978.821765	1.001390
979.119290	0.999423
979.416777	0.999626
979.714228	1.001156
980.011642	0.999035
980.309020	0.999710
980.606360	1.000242
980.903664	1.001011
981.200931	0.998950
981.498162	0.998096
981.795356	0.997677
982.092513	0.998310
982.389633	0.999911
982.686717	0.997895
982.983764	0.998593
983.280775	0.998935
983.577749	0.997582
983.874686	0.998387
984.171587	0.997475
984.468451	0.999088
984.765279	0.999070
985.062070	0.997700
985.358824	0.998829
985.655543	0.998279
985.952224	0.999073
986.248869	1.000101
986.545478	0.999946
986.842050	1.002109
987.138586	0.997707
987.435086	0.999719
987.731549	1.001913
988.027975	1.000805
988.324366	1.000223
988.620719	0.999801
988.917037	0.998539
989.213318	1.000384
989.509563	0.999552
989.805772	1.000663
990.101944	0.999439
990.398080	0.999211
990.694180	0.999611
990.990244	0.999290
991.286271	1.000375
991.582262	1.001839
991.878217	0.999799
992.174136	1.000945
992.470019	1.001171
992.765865	0.998971
993.061676	1.000980
993.357450	1.000481
993.653188	0.998354
993.948890	0.998271
994.244556	1.000334
994.540186	0.999208
994.835780	0.999457
995.131337	0.998301
995.426859	0.998072
995.722345	0.999873
996.017795	0.999839
996.313208	0.998275
996.608586	0.997758
996.903928	0.999605
997.199234	0.999389
997.494504	0.999617
997.789738	0.998851
998.084936	0.999875
998.380099	1.001360
998.675225	0.999331
998.970316	1.000476
999.265371	1.001203
999.560390	1.000624
999.855373	1.000050
1000.150320	1.000053
1000.445232	0.998926
1000.740108	0.999938
1001.034948	0.999876
1001.329752	1.000638
1001.624521	1.000050
1001.919254	0.999378
1002.213951	1.000837
1002.508613	0.999772
1002.803239	1.001655
1003.097829	1.001019
1003.392384	1.001205
1003.686903	0.999431
1003.981386	1.000004
1004.275834	1.000244
1004.570246	1.000101
1004.864623	1.001501
1005.158964	1.001051
1005.453270	1.000341
1005.747540	0.999391
1006.041775	1.001125
1006.335974	1.000552
1006.630138	1.000436
1006.924266	1.001993
1007.218359	1.002452
1007.512416	1.000509
1007.806438	1.000680
1008.100425	1.001380
1008.394376	0.999974
1008.688292	1.000528
1008.982172	1.002320
1009.276017	1.000367
1009.569827	1.000559
1009.863602	0.999942
1010.157341	1.001488
1010.451045	1.000970
1010.744714	1.000506
1011.038347	0.999645
1011.331945	1.000274
1011.625508	0.998729
1011.919036	1.000727
1012.212528	0.999728
1012.505986	0.999943
1012.799408	0.999366
1013.092795	1.000440
1013.386147	1.001585
1013.679464	1.000513
1013.972745	1.000214
1014.265992	0.998579
1014.559204	1.000524
1014.852380	1.000598
1015.145521	1.000923
1015.438628	1.000432
1015.731699	1.000020
1016.024736	1.000699
1016.317737	0.999523
1016.610703	0.998655
1016.903635	1.000795
1017.196531	0.999744
1017.489393	1.001344
1017.782219	1.000060
1018.075011	1.000109
1018.367768	1.000338
1018.660490	1.001099
1018.953177	1.001099
1019.245829	1.001099
