Dividing Wavelength (nm)	Counts (n)	Blue Motor Position (mm): 0.000000	Red Motor Position (mm): 48.600000	
326.493990	1.000818
326.888308	1.000818
327.282561	1.000818
327.676750	1.000748
328.070874	0.998916
328.464933	1.000414
328.858929	0.999503
329.252859	0.999114
329.646726	0.999664
330.040528	1.000964
330.434265	0.999194
330.827938	1.000815
331.221547	1.001454
331.615091	0.999454
332.008571	0.999663
332.401986	0.999503
332.795338	1.000376
333.188625	0.998472
333.581847	1.000577
333.975006	1.000312
334.368100	1.000213
334.761129	1.000027
335.154095	1.002057
335.546996	0.999910
335.939833	1.000044
336.332606	1.000473
336.725315	1.002067
337.117960	1.000323
337.510540	1.000213
337.903056	1.001359
338.295508	0.999053
338.687896	1.001045
339.080220	1.000834
339.472480	1.001138
339.864676	1.000630
340.256807	1.000734
340.648875	1.001585
341.040879	1.000183
341.432818	1.001149
341.824694	1.000335
342.216506	1.001317
342.608253	1.000809
342.999937	0.999886
343.391557	1.000068
343.783113	0.999893
344.174605	1.001108
344.566033	1.001358
344.957397	0.999959
345.348697	0.998826
345.739934	1.000223
346.131106	0.999521
346.522215	1.000031
346.913260	0.999661
347.304241	1.000623
347.695159	0.999815
348.086012	0.999972
348.476802	0.999641
348.867528	1.001075
349.258191	0.999336
349.648789	1.000407
350.039324	0.999242
350.429796	1.000558
350.820203	1.000854
351.210548	1.000238
351.600828	1.000841
351.991045	0.999921
352.381198	0.999321
352.771288	0.999798
353.161314	0.999765
353.551276	1.001451
353.941175	1.000578
354.331010	0.999847
354.720782	1.001024
355.110490	1.000034
355.500135	1.000904
355.889717	0.998920
356.279235	1.000187
356.668689	0.999623
357.058080	1.000502
357.447408	1.001935
357.836672	1.000672
358.225873	1.001160
358.615010	1.000380
359.004084	1.002205
359.393095	1.001072
359.782043	1.000199
360.170927	1.000621
360.559748	1.001071
360.948505	0.999359
361.337199	1.000533
361.725830	1.001420
362.114398	1.000236
362.502903	1.000587
362.891344	1.000991
363.279722	1.000867
363.668037	1.001290
364.056289	1.000811
364.444478	1.001548
364.832603	1.000638
365.220665	1.000176
365.608665	1.000145
365.996601	1.000008
366.384474	1.000190
366.772284	1.000871
367.160031	0.999172
367.547715	0.999232
367.935336	1.000260
368.322893	0.999981
368.710388	0.999419
369.097820	1.000919
369.485189	0.999644
369.872495	1.000888
370.259738	0.998866
370.646918	1.000122
371.034035	1.001143
371.421090	1.000505
371.808081	0.999761
372.195010	1.001056
372.581875	1.001136
372.968678	1.000260
373.355418	1.000485
373.742096	0.999296
374.128710	1.000713
374.515262	1.000216
374.901751	1.000356
375.288177	0.998996
375.674540	1.001029
376.060841	1.000320
376.447079	0.999935
376.833254	0.999654
377.219367	1.000639
377.605417	1.000329
377.991404	1.000109
378.377329	0.999795
378.763191	1.000285
379.148991	1.001278
379.534727	1.001464
379.920402	0.999997
380.306013	1.000139
380.691563	1.001708
381.077049	1.000664
381.462474	1.000261
381.847835	1.000690
382.233134	0.999205
382.618371	1.000174
383.003545	1.000304
383.388657	1.000468
383.773706	1.000842
384.158693	1.000396
384.543618	1.000982
384.928480	1.002166
385.313280	1.000128
385.698017	1.001528
386.082692	1.001412
386.467305	1.001102
386.851856	1.001372
387.236344	1.000757
387.620770	0.999439
388.005133	1.001190
388.389435	1.000901
388.773674	1.000876
389.157851	1.001145
389.541965	1.001404
389.926018	0.999941
390.310008	1.001615
390.693936	1.001101
391.077802	1.000698
391.461606	1.000310
391.845348	1.000923
392.229027	1.001728
392.612645	1.000434
392.996200	1.002265
393.379694	1.000828
393.763125	1.001226
394.146494	1.001202
394.529801	1.000444
394.913047	1.001759
395.296230	1.001552
395.679351	1.000993
396.062410	1.000410
396.445408	1.001486
396.828343	1.000588
397.211217	1.000179
397.594028	1.001895
397.976778	1.000653
398.359466	1.000596
398.742092	1.000040
399.124656	1.000284
399.507158	1.000949
399.889598	1.001746
400.271977	1.001353
400.654294	1.001882
401.036549	1.001157
401.418742	1.001112
401.800874	1.001219
402.182944	1.001605
402.564952	1.000013
402.946898	1.002379
403.328783	1.002021
403.710606	1.000787
404.092367	1.001603
404.474067	1.001140
404.855705	1.000475
405.237282	1.001364
405.618797	1.001265
406.000250	0.999993
406.381642	1.000590
406.762972	1.001874
407.144240	1.002007
407.525447	1.001774
407.906593	1.000806
408.287677	1.000869
408.668700	1.002023
409.049661	1.000643
409.430560	1.000800
409.811399	1.000458
410.192176	1.000638
410.572891	1.001124
410.953545	1.001033
411.334138	0.999619
411.714669	1.001760
412.095139	0.999882
412.475547	1.001339
412.855894	1.000877
413.236180	1.001429
413.616405	1.001182
413.996568	1.001277
414.376670	1.000690
414.756711	1.001414
415.136691	1.000889
415.516609	1.001031
415.896466	1.001190
416.276262	1.000222
416.655997	1.001457
417.035670	1.000260
417.415283	1.001091
417.794834	1.001058
418.174324	1.000775
418.553753	1.001237
418.933121	1.001386
419.312428	1.001223
419.691674	1.000872
420.070859	1.001527
420.449983	1.000569
420.829045	1.001321
421.208047	1.002475
421.586988	1.001351
421.965867	1.001130
422.344686	1.001725
422.723444	1.001022
423.102141	1.001300
423.480777	1.002109
423.859352	1.001242
424.237866	1.000649
424.616319	1.000928
424.994712	1.001256
425.373044	1.000951
425.751314	1.001213
426.129524	1.001217
426.507673	1.001295
426.885762	1.001864
427.263789	1.001879
427.641756	1.001335
428.019662	1.001667
428.397508	1.000871
428.775292	1.000421
429.153016	1.001180
429.530679	1.001478
429.908282	1.002246
430.285824	1.000946
430.663305	1.000966
431.040726	1.000679
431.418086	1.001721
431.795385	1.002025
432.172624	1.000532
432.549802	1.000907
432.926920	1.001515
433.303977	1.001262
433.680974	1.000856
434.057910	1.000712
434.434786	1.001884
434.811601	1.000833
435.188355	1.001130
435.565050	1.000671
435.941683	1.001271
436.318257	1.001863
436.694770	1.000929
437.071222	1.001625
437.447614	1.000589
437.823946	1.001418
438.200218	1.001187
438.576429	1.001425
438.952580	1.002088
439.328670	1.000450
439.704700	1.001623
440.080670	1.001426
440.456580	1.001254
440.832429	1.001017
441.208218	1.001582
441.583947	1.001071
441.959616	1.001751
442.335224	1.001919
442.710773	1.002626
443.086261	1.001412
443.461689	1.000323
443.837057	1.001454
444.212365	1.001270
444.587612	1.001353
444.962800	1.001522
445.337927	1.002026
445.712995	1.001733
446.088002	1.002177
446.462949	1.001362
446.837837	1.001441
447.212664	1.001803
447.587431	1.001227
447.962139	1.000776
448.336786	1.001342
448.711374	1.002203
449.085901	1.001586
449.460369	1.002207
449.834776	1.001382
450.209124	1.001844
450.583412	1.001305
450.957640	1.001159
451.331808	1.001066
451.705917	1.001556
452.079965	1.001252
452.453954	1.001468
452.827883	1.001134
453.201752	1.001594
453.575562	1.001929
453.949311	1.001771
454.323001	1.001211
454.696632	1.001683
455.070202	1.001209
455.443713	1.000913
455.817164	1.001009
456.190556	1.002093
456.563888	1.000631
456.937160	1.000941
457.310373	1.001234
457.683526	1.001426
458.056619	1.001278
458.429653	1.000719
458.802628	1.000323
459.175542	1.000757
459.548398	1.000728
459.921194	1.000753
460.293930	1.001454
460.666607	1.000960
461.039224	1.000135
461.411782	1.000736
461.784280	1.000508
462.156719	1.002372
462.529099	1.001446
462.901419	1.001224
463.273680	1.001215
463.645882	1.001567
464.018024	1.001962
464.390106	1.001754
464.762130	1.001871
465.134094	1.001455
465.505999	1.001161
465.877845	1.001257
466.249631	1.001436
466.621358	1.000902
466.993026	1.001306
467.364634	1.001508
467.736184	1.001716
468.107674	1.001495
468.479105	1.001405
468.850477	1.000884
469.221790	1.001817
469.593043	1.002064
469.964238	1.001889
470.335373	1.002259
470.706449	1.001772
471.077467	1.001345
471.448425	1.001691
471.819324	1.002574
472.190164	1.001185
472.560945	1.002101
472.931667	1.001861
473.302330	1.001134
473.672934	1.002021
474.043479	1.001650
474.413965	1.001764
474.784393	1.001700
475.154761	1.001532
475.525070	1.001066
475.895321	1.001589
476.265513	1.001347
476.635645	1.001701
477.005719	1.001848
477.375734	1.000921
477.745691	1.001548
478.115588	1.000956
478.485427	1.001944
478.855207	1.001270
479.224928	1.000974
479.594591	1.001433
479.964194	1.001348
480.333739	1.000909
480.703226	1.001397
481.072653	1.002320
481.442022	1.001973
481.811333	1.001459
482.180584	1.001948
482.549777	1.000975
482.918912	1.002555
483.287988	1.001678
483.657005	1.001176
484.025964	1.002124
484.394864	1.002357
484.763706	1.002354
485.132489	1.001571
485.501213	1.001607
485.869879	1.002091
486.238487	1.002529
486.607036	1.001924
486.975527	1.000642
487.343959	1.001285
487.712333	1.001579
488.080648	1.001717
488.448905	1.001945
488.817104	1.001969
489.185244	1.001921
489.553326	1.001715
489.921350	1.001711
490.289315	1.001507
490.657222	1.001866
491.025070	1.001791
491.392861	1.002589
491.760593	1.002639
492.128267	1.001589
492.495883	1.001682
492.863440	1.002050
493.230939	1.001649
493.598380	1.001430
493.965763	1.001789
494.333088	1.001733
494.700354	1.001524
495.067563	1.001302
495.434713	1.001654
495.801805	1.002249
496.168839	1.001691
496.535815	1.001494
496.902733	1.001606
497.269593	1.001435
497.636395	1.002207
498.003139	1.002126
498.369825	1.002813
498.736453	1.002217
499.103023	1.001332
499.469535	1.000962
499.835989	1.001476
500.202385	1.002108
500.568723	1.001715
500.935003	1.002027
501.301226	1.001623
501.667390	1.001485
502.033497	1.001657
502.399546	1.001839
502.765537	1.000777
503.131470	1.001516
503.497345	1.001449
503.863163	1.002844
504.228923	1.001301
504.594625	1.001991
504.960269	1.002614
505.325856	1.001794
505.691385	1.001798
506.056856	1.002265
506.422270	1.001670
506.787625	1.001763
507.152924	1.001758
507.518164	1.000946
507.883347	1.001814
508.248472	1.001302
508.613540	1.001735
508.978550	1.001579
509.343503	1.001059
509.708398	1.002168
510.073236	1.001798
510.438016	1.001568
510.802738	1.001271
511.167403	1.002155
511.532010	1.001910
511.896561	1.000906
512.261053	1.002489
512.625488	1.001887
512.989866	1.001017
513.354186	1.000780
513.718449	1.001349
514.082655	1.001515
514.446803	1.001949
514.810894	1.001794
515.174927	1.001112
515.538904	1.001192
515.902822	1.001417
516.266684	1.001857
516.630488	1.001813
516.994235	1.001305
517.357925	1.001776
517.721558	1.001835
518.085133	1.001459
518.448651	1.002397
518.812112	1.001574
519.175516	1.001704
519.538863	1.002016
519.902152	1.001712
520.265385	1.000968
520.628560	1.001722
520.991678	1.001646
521.354739	1.001978
521.717743	1.001662
522.080690	1.002183
522.443580	1.001485
522.806413	1.002032
523.169189	1.001079
523.531908	1.001253
523.894569	1.001199
524.257174	1.001758
524.619722	1.001625
524.982213	1.001670
525.344647	1.001788
525.707025	1.000934
526.069345	1.001435
526.431608	1.001665
526.793815	1.001200
527.155964	1.001269
527.518057	1.001946
527.880093	1.002342
528.242072	1.001415
528.603995	1.001423
528.965860	1.002501
529.327669	1.001762
529.689421	1.001774
530.051117	1.002217
530.412755	1.001342
530.774337	1.002437
531.135862	1.001767
531.497331	1.001912
531.858743	1.002308
532.220098	1.001917
532.581396	1.002330
532.942638	1.001523
533.303824	1.001625
533.664953	1.002411
534.026025	1.001549
534.387040	1.001297
534.747999	1.001996
535.108902	1.001771
535.469748	1.001551
535.830537	1.001857
536.191270	1.001734
536.551947	1.000791
536.912567	1.002102
537.273131	1.002312
537.633638	1.001426
537.994089	1.002326
538.354483	1.001757
538.714821	1.001555
539.075103	1.001615
539.435328	1.001577
539.795497	1.001243
540.155609	1.001209
540.515665	1.002273
540.875665	1.001814
541.235609	1.001610
541.595496	1.001811
541.955328	1.000995
542.315102	1.001879
542.674821	1.001504
543.034483	1.000914
543.394090	1.000993
543.753640	1.001493
544.113134	1.001316
544.472571	1.001586
544.831953	1.001272
545.191278	1.001039
545.550548	1.002180
545.909761	1.000516
546.268918	1.001428
546.628019	1.002297
546.987064	1.001863
547.346053	1.001769
547.704986	1.001791
548.063863	1.001746
548.422684	1.001798
548.781449	1.001992
549.140158	1.000648
549.498811	1.002202
549.857408	1.002132
550.215949	1.002106
550.574434	1.001531
550.932864	1.001808
551.291237	1.001956
551.649555	1.002121
552.007817	1.001972
552.366022	1.001431
552.724173	1.002331
553.082267	1.001831
553.440305	1.001370
553.798288	1.001651
554.156215	1.002109
554.514086	1.002140
554.871902	1.001543
555.229661	1.001032
555.587365	1.001668
555.945014	1.001991
556.302606	1.001304
556.660143	1.001797
557.017625	1.001832
557.375050	1.000937
557.732421	1.001420
558.089735	1.001791
558.446994	1.002333
558.804197	1.002164
559.161345	1.002970
559.518437	1.002452
559.875474	1.001168
560.232455	1.001570
560.589381	1.001831
560.946251	1.001095
561.303065	1.001750
561.659825	1.001745
562.016528	1.001094
562.373177	1.001045
562.729770	1.001591
563.086307	1.001939
563.442789	1.001674
563.799216	1.001378
564.155587	1.001119
564.511904	1.001293
564.868164	1.000667
565.224370	1.001239
565.580520	1.001600
565.936615	1.001768
566.292654	1.001431
566.648638	1.001703
567.004567	1.001176
567.360441	1.001231
567.716260	1.002305
568.072023	1.001797
568.427732	1.001773
568.783385	1.001451
569.138982	1.001236
569.494525	1.001294
569.850013	1.001936
570.205445	1.001452
570.560823	1.001988
570.916145	1.001264
571.271412	1.001709
571.626625	1.001616
571.981782	1.001109
572.336884	1.002114
572.691931	1.001970
573.046923	1.000588
573.401860	1.001398
573.756743	1.001251
574.111570	1.001879
574.466342	1.001865
574.821059	1.001591
575.175722	1.001411
575.530330	1.001738
575.884882	1.000991
576.239380	1.002033
576.593823	1.001332
576.948211	1.001376
577.302544	1.001798
577.656823	1.001791
578.011047	1.001351
578.365216	1.001423
578.719330	1.001183
579.073389	1.001351
579.427394	1.001254
579.781344	1.000871
580.135239	1.001219
580.489080	1.001651
580.842866	1.001205
581.196597	1.000892
581.550273	1.000578
581.903895	1.001292
582.257463	1.001394
582.610975	1.000860
582.964434	1.001175
583.317837	1.001729
583.671186	1.001152
584.024481	1.000806
584.377721	1.001489
584.730906	1.001323
585.084037	1.001268
585.437113	1.001441
585.790135	1.001438
586.143103	1.000759
586.496016	1.002045
586.848874	1.000830
587.201679	1.001565
587.554428	1.001043
587.907124	1.001249
588.259765	1.000991
588.612352	1.002040
588.964884	1.001537
589.317362	1.002398
589.669786	1.001852
590.022155	1.001226
590.374470	1.001187
590.726731	1.001203
591.078937	1.000380
591.431090	1.001073
591.783188	1.001404
592.135232	1.001137
592.487222	1.001596
592.839157	1.000729
593.191038	1.001659
593.542866	1.000776
593.894639	1.002236
594.246358	1.001215
594.598022	1.001413
594.949633	1.001414
595.301190	1.000939
595.652692	1.002223
596.004141	1.001961
596.355535	1.001568
596.706876	1.001221
597.058162	1.001648
597.409395	1.001282
597.760573	1.001466
598.111698	1.000498
598.462768	1.000729
598.813785	1.000861
599.164748	1.001072
599.515657	1.001356
599.866511	1.001048
600.217312	1.001365
600.568060	1.001291
600.918753	1.001709
601.269392	1.000699
601.619978	1.000707
601.970510	1.001697
602.320988	1.002154
602.671412	1.000685
603.021783	1.001395
603.372100	1.002683
603.722363	1.002249
604.072572	1.001511
604.422728	1.002006
604.772830	1.000891
605.122878	1.001531
605.472872	1.001406
605.822813	1.000936
606.172701	1.001086
606.522534	1.001575
606.872314	1.001540
607.222041	1.001445
607.571714	1.001953
607.921333	1.000794
608.270899	1.000934
608.620411	1.001941
608.969870	1.001967
609.319276	1.001355
609.668627	1.002041
610.017926	1.000559
610.367171	1.000914
610.716362	1.000751
611.065500	1.000557
611.414585	1.000281
611.763616	1.001730
612.112594	1.000763
612.461518	1.000898
612.810389	1.000785
613.159207	1.001285
613.507971	1.000490
613.856682	1.001290
614.205340	1.001522
614.553945	1.000409
614.902496	1.000865
615.250994	1.000825
615.599439	1.001232
615.947830	1.000914
616.296169	1.001557
616.644454	1.000823
616.992686	1.001260
617.340864	1.001010
617.688990	1.000866
618.037063	1.001418
618.385082	1.000997
618.733048	1.000563
619.080961	1.000887
619.428821	1.001262
619.776628	1.001082
620.124382	1.001485
620.472083	1.000011
620.819731	1.001372
621.167326	1.001372
621.514868	1.000774
621.862357	1.000992
622.209793	1.000856
622.557176	1.000331
622.904506	1.001189
623.251783	1.000247
623.599007	1.000430
623.946179	1.001111
624.293297	1.000679
624.640363	1.001092
624.987376	0.999872
625.334336	1.001589
625.681243	1.000799
626.028097	1.001706
626.374899	1.001622
626.721647	1.001055
627.068343	1.001350
627.414987	1.000553
627.761577	1.001558
628.108115	1.002250
628.454600	1.001263
628.801032	1.000403
629.147412	1.001161
629.493739	1.001011
629.840014	1.001376
630.186236	1.001226
630.532405	1.001157
630.878521	1.000798
631.224585	1.001661
631.570597	1.000856
631.916556	1.000558
632.262462	1.001190
632.608316	1.001971
632.954117	1.000669
633.299866	1.000621
633.645562	1.000893
633.991206	1.001268
634.336797	1.002194
634.682336	1.001231
635.027823	1.001216
635.373257	1.001449
635.718639	1.000900
636.063968	1.000269
636.409245	1.000914
636.754470	1.000776
637.099642	1.002258
637.444762	1.001105
637.789829	1.000447
638.134845	1.000738
638.479808	1.001364
638.824719	1.000339
639.169577	1.000312
639.514383	1.000494
639.859137	1.000440
640.203839	1.001431
640.548489	0.999961
640.893086	1.001639
641.237632	1.001353
641.582125	0.999943
641.926566	1.000246
642.270955	1.001112
642.615292	1.001419
642.959576	1.001612
643.303809	1.001357
643.647990	1.000505
643.992118	1.000973
644.336195	1.001080
644.680219	1.001346
645.024192	1.001339
645.368112	1.000726
645.711981	1.001595
646.055797	1.000733
646.399562	1.000504
646.743274	0.999034
647.086935	1.000062
647.430544	0.999615
647.774101	1.000813
648.117606	1.000718
648.461059	1.000229
648.804460	1.000027
649.147810	1.000910
649.491108	1.000581
649.834354	1.000782
650.177548	1.001046
650.520690	1.001177
650.863781	1.000843
651.206820	1.000909
651.549807	1.001433
651.892742	1.000640
652.235626	1.001245
652.578458	1.000698
652.921238	1.000214
653.263967	1.001861
653.606644	1.000733
653.949269	1.000946
654.291843	1.000569
654.634365	1.000514
654.976836	1.001031
655.319255	1.000926
655.661622	1.001122
656.003938	1.001054
656.346203	1.000480
656.688416	1.001466
657.030577	1.000993
657.372687	0.999953
657.714746	1.000951
658.056753	1.000670
658.398708	1.000714
658.740612	1.001270
659.082465	1.000869
659.424266	1.001632
659.766016	1.000293
660.107715	0.999882
660.449362	1.000552
660.790958	1.000577
661.132503	0.999279
661.473996	1.000650
661.815438	1.000183
662.156829	0.999841
662.498168	1.001238
662.839456	0.999992
663.180693	1.000725
663.521879	1.000301
663.863013	1.001342
664.204097	1.001133
664.545129	1.000296
664.886110	1.000749
665.227040	1.000067
665.567918	1.000706
665.908746	1.000518
666.249522	1.000499
666.590248	1.000466
666.930922	1.000943
667.271545	1.000761
667.612118	1.001296
667.952639	1.001167
668.293109	0.999877
668.633528	1.001144
668.973896	1.001102
669.314213	0.999279
669.654480	1.000668
669.994695	1.000331
670.334859	1.000477
670.674973	0.999978
671.015035	1.001123
671.355047	1.000492
671.695008	1.000405
672.034918	1.000496
672.374777	1.001017
672.714585	1.000242
673.054342	1.000753
673.394049	1.000734
673.733705	1.000160
674.073310	1.000034
674.412864	0.999894
674.752368	1.000021
675.091820	1.001500
675.431223	1.000523
675.770574	0.999925
676.109875	1.000988
676.449125	1.001008
676.788324	0.999876
677.127473	1.002289
677.466571	1.001296
677.805619	1.000605
678.144616	1.000320
678.483562	0.999789
678.822458	1.000979
679.161303	1.001699
679.500098	1.000525
679.838842	1.001296
680.177535	1.000929
680.516179	1.001025
680.854771	1.001081
681.193314	1.000317
681.531805	0.999948
681.870247	0.999719
682.208638	1.000016
682.546978	0.999137
682.885268	0.999567
683.223508	1.001214
683.561697	0.999304
683.899836	1.000841
684.237925	1.000523
684.575963	0.999959
684.913951	0.999730
685.251889	1.000785
685.589776	1.000608
685.927614	1.000288
686.265401	0.999933
686.603137	1.000186
686.940824	1.000072
687.278460	1.000226
687.616046	0.999897
687.953582	0.999678
688.291068	1.000183
688.628504	1.001206
688.965889	0.999978
689.303224	0.999440
689.640510	1.000386
689.977745	1.000703
690.314930	1.001271
690.652065	1.000682
690.989150	1.000832
691.326185	1.000070
691.663170	0.999686
692.000105	1.000215
692.336990	1.000152
692.673825	1.001228
693.010610	1.001443
693.347345	1.000113
693.684030	1.000539
694.020665	1.001019
694.357251	1.000872
694.693786	1.001077
695.030272	1.001185
695.366707	1.000876
695.703093	1.000429
696.039429	0.999669
696.375716	1.000714
696.711952	1.000434
697.048139	1.001116
697.384276	0.999893
697.720363	0.999033
698.056400	1.000470
698.392388	0.999471
698.728326	1.000727
699.064214	1.001642
699.400053	1.001143
699.735842	1.001223
700.071581	1.001166
700.407270	1.000105
700.742910	1.001243
701.078501	1.000579
701.414042	1.001159
701.749533	0.999742
702.084974	1.001087
702.420366	0.999349
702.755709	1.000418
703.091002	0.999981
703.426246	1.000985
703.761440	1.001355
704.096584	0.999807
704.431679	1.000591
704.766725	0.999473
705.101721	0.998784
705.436668	1.000171
705.771565	1.000255
706.106413	1.000722
706.441212	1.000767
706.775961	0.999933
707.110661	1.000390
707.445311	1.000503
707.779913	1.000815
708.114465	1.001295
708.448967	1.000691
708.783421	0.999943
709.117825	1.000192
709.452180	1.000533
709.786485	1.000007
710.120742	0.999296
710.454949	1.000216
710.789107	0.999080
711.123216	0.999207
711.457275	1.001253
711.791286	0.999357
712.125247	1.000529
712.459159	0.999651
712.793023	1.000501
713.126837	1.000926
713.460602	1.000410
713.794318	1.000105
714.127985	1.000495
714.461602	1.000872
714.795171	1.000310
715.128691	0.999585
715.462162	1.000593
715.795584	0.999329
716.128957	1.001112
716.462281	1.000100
716.795556	1.001037
717.128782	1.000482
717.461960	0.999751
717.795088	0.999859
718.128167	1.001175
718.461198	1.001136
718.794180	1.000612
719.127113	1.001084
719.459997	1.000408
719.792833	1.000511
720.125619	0.999792
720.458357	1.000401
720.791046	1.001558
721.123686	1.000636
721.456278	1.001247
721.788821	1.000186
722.121315	1.000082
722.453761	1.000067
722.786158	1.000448
723.118506	1.000080
723.450805	1.000880
723.783056	1.000387
724.115259	1.000455
724.447412	1.000667
724.779518	1.001030
725.111574	1.000726
725.443582	1.000728
725.775542	1.000639
726.107453	1.000553
726.439315	1.000512
726.771129	0.999702
727.102895	0.999845
727.434612	1.000527
727.766281	0.999518
728.097901	1.000076
728.429473	1.001598
728.760996	1.000315
729.092471	1.000172
729.423897	0.999692
729.755276	1.000130
730.086606	1.000084
730.417887	0.999708
730.749120	1.000371
731.080305	0.999903
731.411442	0.999561
731.742530	1.001023
732.073570	1.000007
732.404562	0.999538
732.735506	1.000278
733.066401	1.000204
733.397249	1.000862
733.728048	1.000584
734.058798	1.001103
734.389501	1.000532
734.720156	1.000076
735.050762	1.001226
735.381320	0.999475
735.711831	1.001511
736.042293	1.001130
736.372707	1.000820
736.703073	1.000088
737.033391	1.001261
737.363661	1.001336
737.693883	0.999735
738.024056	1.000266
738.354182	1.000106
738.684260	1.000049
739.014290	0.998814
739.344272	1.000118
739.674207	1.000830
740.004093	1.001210
740.333931	1.000657
740.663722	1.000682
740.993464	1.000989
741.323159	0.999995
741.652806	1.001237
741.982405	1.001004
742.311956	0.999330
742.641460	0.999574
742.970915	0.998992
743.300323	1.000873
743.629683	1.001446
743.958996	1.000878
744.288260	1.001244
744.617477	1.000132
744.946647	1.000181
745.275768	1.000280
745.604842	1.001137
745.933869	1.000648
746.262847	0.999063
746.591778	0.999411
746.920662	1.000680
747.249498	1.000414
747.578286	1.000004
747.907027	0.999918
748.235720	1.000988
748.564365	0.999387
748.892963	0.999862
749.221514	0.998847
749.550017	1.000237
749.878473	0.999169
750.206881	0.999567
750.535242	1.000809
750.863555	1.000977
751.191821	1.000399
751.520039	1.000042
751.848210	1.000140
752.176334	0.999937
752.504411	1.000726
752.832440	1.000353
753.160421	1.000131
753.488356	1.000619
753.816243	1.000410
754.144082	0.999739
754.471875	1.001423
754.799620	1.000448
755.127318	1.000478
755.454969	0.999666
755.782572	1.000399
756.110129	0.999883
756.437638	1.000715
756.765100	0.999009
757.092515	0.999966
757.419882	1.000099
757.747203	1.000760
758.074477	0.999803
758.401703	1.000302
758.728882	0.999542
759.056014	1.000744
759.383099	1.000071
759.710138	0.999807
760.037129	1.000589
760.364073	1.000661
760.690970	0.999863
761.017820	1.000800
761.344623	1.000056
761.671379	0.999512
761.998088	0.999885
762.324751	1.000886
762.651366	1.000537
762.977935	1.000087
763.304456	0.999375
763.630931	1.000001
763.957359	0.999025
764.283740	1.001476
764.610074	1.000160
764.936362	0.999923
765.262602	0.999070
765.588796	0.999298
765.914943	1.002062
766.241044	1.001240
766.567097	1.001357
766.893104	0.999996
767.219064	0.999984
767.544978	1.000328
767.870845	1.001637
768.196665	0.999532
768.522438	0.998980
768.848165	1.000257
769.173846	1.000169
769.499479	1.000869
769.825066	0.999680
770.150607	1.001180
770.476101	0.999815
770.801548	0.999189
771.126949	1.000126
771.452303	0.999014
771.777611	1.000212
772.102872	1.000371
772.428087	0.999504
772.753256	1.000259
773.078378	1.000551
773.403453	0.999946
773.728482	1.001077
774.053465	1.000149
774.378401	1.000771
774.703291	0.999127
775.028135	1.000192
775.352932	1.000530
775.677683	0.999953
776.002388	0.999443
776.327046	0.999531
776.651658	0.999725
776.976224	0.999141
777.300743	1.000135
777.625216	0.999992
777.949643	0.999836
778.274024	1.000628
778.598359	1.000260
778.922647	1.000628
779.246889	1.000487
779.571086	1.000658
779.895236	0.999329
780.219339	1.000198
780.543397	1.001217
780.867409	1.000582
781.191374	1.000825
781.515294	1.000194
781.839167	1.000039
782.162995	1.001425
782.486776	0.999902
782.810511	0.999805
783.134201	0.999410
783.457844	0.999855
783.781441	0.998616
784.104993	0.999658
784.428498	0.999738
784.751958	0.999860
785.075372	1.001200
785.398739	0.999515
785.722061	1.000683
786.045337	1.001627
786.368568	1.000514
786.691752	1.000748
787.014891	0.999609
787.337983	1.000183
787.661030	0.999645
787.984031	1.000864
788.306987	0.999779
788.629897	1.000299
788.952760	0.999856
789.275579	1.001665
789.598351	0.999972
789.921078	1.000341
790.243759	1.000178
790.566395	1.000277
790.888984	1.000065
791.211529	0.999544
791.534027	1.000558
791.856480	1.000277
792.178888	0.999529
792.501249	1.000694
792.823566	1.000921
793.145836	1.001302
793.468062	1.001238
793.790241	0.999450
794.112375	0.999312
794.434464	0.999204
794.756507	0.999796
795.078505	1.000697
795.400457	1.001096
795.722364	1.000320
796.044226	0.999019
796.366042	1.000192
796.687812	0.999989
797.009538	1.000410
797.331218	0.999622
797.652852	1.000721
797.974442	1.001230
798.295986	0.998590
798.617484	1.000119
798.938938	1.000799
799.260346	0.999816
799.581709	1.000604
799.903026	1.001004
800.224299	0.999766
800.545526	1.000492
800.866708	1.000825
801.187845	1.000516
801.508936	1.000519
801.829983	1.001314
802.150984	0.999042
802.471940	1.000362
802.792851	1.000137
803.113717	1.000392
803.434538	1.000729
803.755314	1.000453
804.076045	1.000423
804.396731	0.999975
804.717372	1.000343
805.037967	0.999597
805.358518	1.000309
805.679024	1.001675
805.999485	1.000047
806.319901	1.001554
806.640272	1.000179
806.960598	0.999943
807.280879	0.999217
807.601115	1.001099
807.921306	1.000799
808.241453	0.998325
808.561554	0.999934
808.881611	1.000345
809.201623	1.001191
809.521590	0.999911
809.841513	1.000503
810.161390	0.999285
810.481223	1.000062
810.801011	1.000422
811.120755	1.001339
811.440453	0.999840
811.760107	0.998652
812.079716	1.000080
812.399281	1.000556
812.718801	0.999512
813.038276	1.000055
813.357707	1.000121
813.677093	0.999177
813.996434	1.000672
814.315731	1.000285
814.634983	1.000629
814.954191	0.999140
815.273354	1.001269
815.592473	1.000348
815.911547	1.001072
816.230577	0.999879
816.549562	1.001134
816.868502	1.000715
817.187399	1.000363
817.506250	1.000416
817.825058	1.000461
818.143821	1.000263
818.462539	1.000249
818.781213	1.000261
819.099843	0.999212
819.418429	0.999976
819.736970	1.000997
820.055466	0.999838
820.373919	1.000101
820.692327	0.998720
821.010691	0.999824
821.329011	1.000916
821.647286	0.998658
821.965517	0.998927
822.283704	0.998644
822.601847	0.999558
822.919945	0.998815
823.237999	1.000238
823.556010	0.999929
823.873976	0.999964
824.191897	1.000320
824.509775	0.999738
824.827609	1.001128
825.145398	0.999892
825.463144	0.999636
825.780845	1.000979
826.098502	1.000065
826.416116	0.999047
826.733685	1.000131
827.051210	0.999700
827.368692	0.999907
827.686129	0.999531
828.003522	1.000175
828.320872	0.998776
828.638177	0.999361
828.955439	1.001564
829.272656	1.002659
829.589830	1.000472
829.906960	0.999932
830.224046	0.999997
830.541088	1.000056
830.858086	0.999376
831.175041	0.999501
831.491952	1.000406
831.808819	1.000104
832.125642	1.001314
832.442421	0.998993
832.759157	1.000546
833.075849	0.999506
833.392497	1.000056
833.709101	0.999431
834.025662	0.999885
834.342179	0.999880
834.658653	1.001109
834.975083	1.000829
835.291469	0.998661
835.607811	0.999814
835.924110	0.998276
836.240366	0.999819
836.556578	1.001624
836.872746	1.001795
837.188871	1.000166
837.504952	0.998824
837.820990	1.000699
838.136984	0.999234
838.452935	1.000397
838.768842	0.999710
839.084706	0.999941
839.400526	1.000314
839.716303	0.999311
840.032037	1.000729
840.347727	0.999701
840.663373	1.000984
840.978977	1.000448
841.294537	0.999722
841.610054	1.000911
841.925527	1.000125
842.240957	1.000918
842.556344	0.999046
842.871687	1.000208
843.186987	1.001450
843.502244	1.000306
843.817458	1.000762
844.132629	0.999312
844.447756	1.000922
844.762840	1.000993
845.077881	0.999705
845.392879	1.000288
845.707833	1.000328
846.022745	1.000545
846.337613	1.000405
846.652438	1.000169
846.967221	0.999474
847.281960	1.000174
847.596656	1.001415
847.911309	1.000297
848.225919	1.000532
848.540485	0.999862
848.855009	1.000867
849.169490	1.000358
849.483928	1.000277
849.798323	1.000875
850.112675	1.000408
850.426984	1.000771
850.741251	1.000449
851.055474	1.001291
851.369654	0.999255
851.683792	1.001562
851.997887	0.999900
852.311938	1.000839
852.625947	1.001463
852.939914	0.999755
853.253837	1.001170
853.567718	1.001616
853.881555	1.001653
854.195350	0.999978
854.509103	1.001722
854.822812	1.001544
855.136479	1.000302
855.450103	1.001171
855.763685	1.000395
856.077224	0.999170
856.390720	0.999666
856.704173	1.000319
857.017584	1.000517
857.330953	0.999846
857.644278	1.002199
857.957561	0.999707
858.270802	0.999364
858.584000	0.998988
858.897155	0.999959
859.210268	1.001881
859.523339	0.999634
859.836367	0.998812
860.149352	1.000670
860.462295	0.999259
860.775195	1.000264
861.088054	1.000222
861.400869	0.998860
861.713642	1.000339
862.026373	0.999097
862.339062	1.000318
862.651708	0.999756
862.964312	0.999597
863.276873	1.000771
863.589392	1.000817
863.901869	1.000546
864.214303	1.001339
864.526696	1.001090
864.839045	1.001502
865.151353	1.000517
865.463619	1.000057
865.775842	1.001013
866.088023	1.000997
866.400162	1.000525
866.712258	1.000825
867.024313	1.000088
867.336325	0.998678
867.648296	1.000549
867.960224	1.001482
868.272110	1.000196
868.583954	1.000204
868.895755	1.000203
869.207515	0.999450
869.519233	1.000436
869.830909	1.000473
870.142542	1.000374
870.454134	0.999951
870.765684	1.001188
871.077191	0.999566
871.388657	1.001355
871.700081	0.999963
872.011463	0.998935
872.322803	1.001184
872.634101	1.000287
872.945357	1.000624
873.256571	1.001248
873.567744	0.999860
873.878874	1.000344
874.189963	0.998697
874.501010	0.998528
874.812015	1.000235
875.122979	1.000996
875.433900	1.000875
875.744780	1.000728
876.055618	1.000513
876.366415	1.000989
876.677169	1.000344
876.987882	1.000791
877.298554	1.000504
877.609183	0.999927
877.919771	1.001133
878.230317	0.999886
878.540822	0.999959
878.851285	1.000031
879.161707	1.000291
879.472087	1.001097
879.782425	1.000362
880.092722	1.000027
880.402977	0.999278
880.713191	1.000401
881.023363	1.000070
881.333494	0.998398
881.643583	0.998777
881.953631	0.999401
882.263637	0.999624
882.573602	1.000133
882.883526	0.999676
883.193408	0.999802
883.503248	0.999370
883.813048	0.998854
884.122806	0.999621
884.432522	1.000050
884.742197	1.000748
885.051831	0.999576
885.361424	0.999222
885.670975	0.999772
885.980485	1.000509
886.289954	0.999989
886.599382	1.000609
886.908768	0.999151
887.218113	1.000566
887.527417	0.999196
887.836680	0.999673
888.145901	1.001279
888.455082	1.000512
888.764221	1.000753
889.073319	0.999613
889.382376	0.999357
889.691392	1.001234
890.000366	1.000434
890.309300	1.000821
890.618193	1.001139
890.927044	0.999635
891.235855	0.999334
891.544625	0.999677
891.853353	0.999740
892.162041	0.999864
892.470687	0.999910
892.779293	0.999681
893.087858	1.000363
893.396381	1.000721
893.704864	1.000313
894.013306	0.999417
894.321707	0.999118
894.630068	0.999317
894.938387	1.000608
895.246665	0.999246
895.554903	0.999525
895.863100	1.000562
896.171256	1.000070
896.479371	1.000579
896.787446	0.999945
897.095480	0.999247
897.403473	1.000417
897.711425	1.000896
898.019336	1.000547
898.327207	0.998070
898.635038	1.001276
898.942827	0.999742
899.250576	1.000195
899.558284	0.999895
899.865952	0.999063
900.173579	0.999783
900.481165	1.000623
900.788711	1.001387
901.096216	1.001096
901.403681	0.999958
901.711105	1.001927
902.018489	1.000330
902.325832	1.000323
902.633135	1.000485
902.940397	0.999959
903.247619	1.001521
903.554800	0.998453
903.861941	0.999059
904.169041	1.000310
904.476101	1.000477
904.783121	0.999158
905.090100	1.000072
905.397039	1.000749
905.703938	1.000228
906.010796	0.999573
906.317614	1.000741
906.624391	0.999889
906.931129	0.999931
907.237826	1.000070
907.544483	1.000925
907.851099	0.998644
908.157675	1.001228
908.464211	1.001370
908.770707	1.001142
909.077163	1.000850
909.383578	1.000288
909.689954	0.999620
909.996289	0.999399
910.302584	1.000925
910.608839	1.001356
910.915054	0.999900
911.221229	1.000336
911.527363	1.001217
911.833458	1.000174
912.139513	0.999336
912.445527	0.999030
912.751502	1.000152
913.057436	1.000435
913.363331	0.999784
913.669186	1.001337
913.975000	1.001119
914.280775	1.001342
914.586510	0.999491
914.892205	0.998349
915.197859	1.000165
915.503475	1.000014
915.809050	1.000209
916.114585	0.999397
916.420081	0.999918
916.725536	0.998984
917.030952	0.999254
917.336328	0.999578
917.641665	0.998945
917.946961	0.999374
918.252218	0.999357
918.557435	0.999469
918.862612	1.000981
919.167750	1.000498
919.472848	0.999960
919.777906	0.999623
920.082925	1.000319
920.387904	1.001142
920.692843	1.000049
920.997743	0.999234
921.302603	1.000776
921.607423	0.999467
921.912204	0.999967
922.216946	1.000281
922.521647	1.000254
922.826310	1.000865
923.130932	1.000068
923.435516	0.999167
923.740059	0.999205
924.044564	0.998654
924.349028	0.999874
924.653454	1.000654
924.957840	1.000713
925.262186	1.000914
925.566493	1.000387
925.870761	1.001346
926.174989	1.000576
926.479178	1.000926
926.783328	1.000761
927.087438	0.999954
927.391509	0.999450
927.695541	1.001532
927.999533	1.000245
928.303486	1.000051
928.607400	1.001472
928.911275	0.999785
929.215110	1.000258
929.518906	1.001350
929.822663	0.998777
930.126381	1.000882
930.430060	0.999580
930.733699	1.000435
931.037299	0.999627
931.340861	1.000711
931.644383	0.999784
931.947866	0.999694
932.251309	1.000959
932.554714	1.001730
932.858080	1.000326
933.161407	1.000058
933.464694	1.000800
933.767943	1.000238
934.071153	1.000193
934.374323	1.000967
934.677455	0.999573
934.980548	1.001820
935.283602	0.999075
935.586617	0.999479
935.889593	0.999563
936.192530	1.000250
936.495428	0.999729
936.798287	0.999816
937.101108	1.000976
937.403890	1.000894
937.706632	1.000470
938.009336	0.999483
938.312002	1.000055
938.614628	0.999625
938.917216	1.000396
939.219765	0.998699
939.522275	1.001719
939.824747	1.000841
940.127179	0.999534
940.429573	1.000593
940.731929	1.000308
941.034246	1.000935
941.336524	1.000152
941.638763	1.000772
941.940964	1.000897
942.243126	0.999044
942.545250	1.000887
942.847335	1.000920
943.149381	0.999631
943.451389	1.000438
943.753359	0.999992
944.055290	1.001804
944.357182	1.000922
944.659036	0.999451
944.960851	1.000005
945.262628	1.000145
945.564367	1.000796
945.866067	0.999651
946.167729	1.000090
946.469352	1.000368
946.770937	0.999083
947.072484	1.000931
947.373992	1.000502
947.675462	1.000506
947.976893	0.999819
948.278286	1.000501
948.579641	1.001052
948.880958	0.999710
949.182236	1.000427
949.483476	1.001307
949.784678	0.999084
950.085841	1.000333
950.386967	1.000762
950.688054	0.999716
950.989103	1.001813
951.290114	1.000253
951.591087	0.999675
951.892021	1.001016
952.192917	1.000372
952.493776	1.000117
952.794596	0.999575
953.095378	1.000099
953.396122	1.001043
953.696828	0.999228
953.997496	1.001160
954.298126	1.001177
954.598718	1.000748
954.899272	1.000886
955.199788	0.998657
955.500266	1.001029
955.800706	1.000545
956.101108	1.000766
956.401472	1.001719
956.701798	1.000783
957.002087	0.999379
957.302337	1.000117
957.602550	1.002465
957.902724	0.999894
958.202861	1.000036
958.502960	1.000669
958.803022	0.999178
959.103045	1.001763
959.403031	1.001597
959.702979	0.999071
960.002889	1.000328
960.302762	0.998754
960.602596	1.000587
960.902393	0.998816
961.202153	1.001596
961.501875	0.998796
961.801559	1.000052
962.101205	1.000114
962.400814	1.000820
962.700385	1.000085
962.999918	1.000617
963.299414	1.000152
963.598873	0.998065
963.898293	0.999664
964.197677	0.999253
964.497022	1.000859
964.796331	1.001452
965.095601	1.000554
965.394835	1.001086
965.694030	1.000230
965.993189	1.001133
966.292309	0.999688
966.591393	1.000984
966.890439	1.001781
967.189447	0.999458
967.488419	1.001133
967.787353	1.000147
968.086249	1.000400
968.385108	1.000367
968.683930	1.000206
968.982714	1.001367
969.281462	1.000424
969.580172	1.000517
969.878844	1.001281
970.177480	1.000041
970.476078	1.000017
970.774639	1.000709
971.073162	1.000592
971.371649	0.999727
971.670098	1.000053
971.968510	1.001379
972.266885	0.998690
972.565223	1.001309
972.863524	0.999309
973.161788	1.000695
973.460014	1.001278
973.758204	0.999951
974.056356	0.999942
974.354471	0.998550
974.652550	1.000349
974.950591	1.000835
975.248595	1.000029
975.546563	1.000354
975.844493	1.001757
976.142386	0.999937
976.440243	1.000945
976.738062	1.001158
977.035845	1.001062
977.333590	1.000234
977.631299	1.000918
977.928971	0.999864
978.226606	1.000177
978.524204	0.999444
978.821765	1.001323
979.119290	0.999992
979.416777	1.000115
979.714228	1.000562
980.011642	0.999884
980.309020	1.001314
980.606360	0.999614
980.903664	1.001426
981.200931	0.999698
981.498162	0.999881
981.795356	1.000066
982.092513	0.999702
982.389633	1.000749
982.686717	0.999355
982.983764	1.000613
983.280775	1.000085
983.577749	1.000286
983.874686	1.000893
984.171587	0.999637
984.468451	1.000381
984.765279	1.001065
985.062070	0.999494
985.358824	1.000131
985.655543	0.999047
985.952224	0.998913
986.248869	1.001529
986.545478	1.000372
986.842050	1.002938
987.138586	0.998342
987.435086	1.001312
987.731549	1.001914
988.027975	1.000159
988.324366	1.000154
988.620719	1.000946
988.917037	0.999564
989.213318	0.999366
989.509563	1.001619
989.805772	1.000368
990.101944	1.001409
990.398080	0.999016
990.694180	1.000367
990.990244	0.999477
991.286271	0.999759
991.582262	1.000053
991.878217	0.998546
992.174136	1.001105
992.470019	1.001078
992.765865	1.000653
993.061676	1.000664
993.357450	1.000410
993.653188	0.999142
993.948890	1.000362
994.244556	0.999602
994.540186	0.999854
994.835780	1.000336
995.131337	1.000865
995.426859	0.999888
995.722345	1.001091
996.017795	1.000254
996.313208	1.000159
996.608586	0.999818
996.903928	1.000913
997.199234	0.999451
997.494504	0.999845
997.789738	0.999456
998.084936	0.999483
998.380099	1.000137
998.675225	0.999876
998.970316	1.000047
999.265371	1.000820
999.560390	1.000657
999.855373	1.001072
1000.150320	1.000662
1000.445232	1.001226
1000.740108	1.001410
1001.034948	1.000590
1001.329752	1.001146
1001.624521	1.000170
1001.919254	1.000461
1002.213951	1.001206
1002.508613	0.999814
1002.803239	1.000867
1003.097829	1.000802
1003.392384	1.000877
1003.686903	0.999992
1003.981386	0.999836
1004.275834	1.001205
1004.570246	1.000070
1004.864623	1.000804
1005.158964	1.001251
1005.453270	0.999720
1005.747540	1.000060
1006.041775	0.999704
1006.335974	1.000918
1006.630138	1.001170
1006.924266	1.001706
1007.218359	1.001527
1007.512416	1.001473
1007.806438	1.000286
1008.100425	1.000882
1008.394376	0.999932
1008.688292	0.999743
1008.982172	1.002201
1009.276017	1.001788
1009.569827	0.999865
1009.863602	1.001003
1010.157341	1.000025
1010.451045	1.000708
1010.744714	0.999088
1011.038347	1.000361
1011.331945	1.000310
1011.625508	0.998787
1011.919036	1.000697
1012.212528	1.000941
1012.505986	0.999302
1012.799408	0.999490
1013.092795	0.999540
1013.386147	0.999952
1013.679464	1.000701
1013.972745	0.999799
1014.265992	0.999512
1014.559204	0.998841
1014.852380	1.001275
1015.145521	0.999997
1015.438628	1.001148
1015.731699	1.000499
1016.024736	1.000143
1016.317737	1.000902
1016.610703	1.000373
1016.903635	1.000446
1017.196531	1.000357
1017.489393	1.001117
1017.782219	0.999905
1018.075011	1.000247
1018.367768	1.001058
1018.660490	1.001104
1018.953177	1.001104
1019.245829	1.001104
