Dividing Wavelength (nm)	Counts (n)	Blue Motor Position (mm): 0.000000	Red Motor Position (mm): 49.200000	
326.493990	1.000435
326.888308	1.000435
327.282561	1.000435
327.676750	0.999927
328.070874	0.999222
328.464933	1.001142
328.858929	0.999768
329.252859	0.999894
329.646726	0.999468
330.040528	1.000216
330.434265	0.998633
330.827938	1.001245
331.221547	1.000630
331.615091	1.000598
332.008571	1.000526
332.401986	1.000100
332.795338	0.999835
333.188625	0.998531
333.581847	0.999698
333.975006	0.999039
334.368100	0.999344
334.761129	0.999955
335.154095	1.000671
335.546996	0.999136
335.939833	0.999278
336.332606	1.000475
336.725315	1.000047
337.117960	1.001853
337.510540	1.000215
337.903056	0.999652
338.295508	0.999572
338.687896	1.000328
339.080220	0.999571
339.472480	1.000061
339.864676	1.001180
340.256807	1.000139
340.648875	1.001157
341.040879	1.001602
341.432818	1.000730
341.824694	0.999572
342.216506	1.000228
342.608253	0.999141
342.999937	0.999438
343.391557	0.999954
343.783113	1.000403
344.174605	1.000006
344.566033	1.001921
344.957397	0.998459
345.348697	0.999936
345.739934	1.000791
346.131106	0.999272
346.522215	0.998861
346.913260	0.999201
347.304241	0.999073
347.695159	1.000301
348.086012	0.998818
348.476802	1.000359
348.867528	1.001381
349.258191	0.997049
349.648789	1.001259
350.039324	0.999165
350.429796	1.000550
350.820203	0.999934
351.210548	0.998889
351.600828	0.999698
351.991045	0.999410
352.381198	0.999238
352.771288	1.000270
353.161314	0.999448
353.551276	1.001271
353.941175	1.000079
354.331010	0.999310
354.720782	0.999934
355.110490	1.000220
355.500135	1.000600
355.889717	0.998929
356.279235	1.000311
356.668689	1.000322
357.058080	0.999327
357.447408	1.000818
357.836672	1.000855
358.225873	1.001550
358.615010	1.000742
359.004084	1.001449
359.393095	0.999382
359.782043	1.000334
360.170927	1.000663
360.559748	1.001089
360.948505	0.999090
361.337199	0.999983
361.725830	1.000395
362.114398	0.999338
362.502903	1.001405
362.891344	1.000617
363.279722	1.000256
363.668037	1.000521
364.056289	1.000291
364.444478	1.001848
364.832603	1.000828
365.220665	0.999750
365.608665	1.000422
365.996601	1.000194
366.384474	1.000310
366.772284	1.000541
367.160031	0.999675
367.547715	0.999728
367.935336	1.000026
368.322893	1.000295
368.710388	0.998808
369.097820	1.000337
369.485189	0.999804
369.872495	1.000345
370.259738	0.998487
370.646918	1.001932
371.034035	1.000672
371.421090	0.999752
371.808081	0.999260
372.195010	1.001000
372.581875	1.000558
372.968678	1.000267
373.355418	0.999300
373.742096	0.999264
374.128710	1.001429
374.515262	0.999656
374.901751	0.999346
375.288177	0.999396
375.674540	1.000634
376.060841	0.999735
376.447079	1.000615
376.833254	1.000194
377.219367	0.999855
377.605417	1.000092
377.991404	1.000569
378.377329	1.000444
378.763191	1.000427
379.148991	1.000500
379.534727	1.000343
379.920402	1.000608
380.306013	1.000136
380.691563	1.000677
381.077049	1.000442
381.462474	0.999903
381.847835	1.000327
382.233134	1.000872
382.618371	1.000539
383.003545	0.999755
383.388657	1.000740
383.773706	1.000263
384.158693	1.000431
384.543618	1.000662
384.928480	1.000991
385.313280	0.999671
385.698017	1.001330
386.082692	1.000470
386.467305	1.001308
386.851856	1.000223
387.236344	1.000653
387.620770	1.000111
388.005133	1.000771
388.389435	1.001644
388.773674	1.000386
389.157851	1.001360
389.541965	1.000260
389.926018	0.999051
390.310008	1.001018
390.693936	1.001002
391.077802	1.000873
391.461606	0.999415
391.845348	1.000153
392.229027	1.001963
392.612645	1.000880
392.996200	1.002807
393.379694	0.999812
393.763125	1.001767
394.146494	1.000126
394.529801	0.999478
394.913047	1.001136
395.296230	1.000320
395.679351	1.000070
396.062410	0.999726
396.445408	1.000750
396.828343	1.000320
397.211217	0.999500
397.594028	1.001147
397.976778	0.999897
398.359466	1.000817
398.742092	1.000103
399.124656	0.999723
399.507158	1.001669
399.889598	1.001128
400.271977	1.001154
400.654294	1.001865
401.036549	1.000809
401.418742	1.000868
401.800874	1.000265
402.182944	1.000033
402.564952	0.998764
402.946898	1.000868
403.328783	1.001258
403.710606	1.000684
404.092367	1.000791
404.474067	1.000070
404.855705	0.999245
405.237282	1.000643
405.618797	1.000772
406.000250	1.000064
406.381642	1.000459
406.762972	1.001289
407.144240	1.001573
407.525447	1.000784
407.906593	1.000727
408.287677	1.001189
408.668700	1.001764
409.049661	0.999213
409.430560	1.001170
409.811399	1.000330
410.192176	1.000140
410.572891	1.000999
410.953545	1.000613
411.334138	0.999957
411.714669	1.000015
412.095139	1.000060
412.475547	1.001886
412.855894	1.000927
413.236180	1.001461
413.616405	1.000788
413.996568	1.001070
414.376670	1.000994
414.756711	0.999848
415.136691	1.001172
415.516609	1.000911
415.896466	1.001218
416.276262	0.999602
416.655997	1.001218
417.035670	1.000029
417.415283	1.000821
417.794834	1.001199
418.174324	1.000255
418.553753	1.000917
418.933121	1.000446
419.312428	1.000645
419.691674	1.000910
420.070859	1.000906
420.449983	1.000196
420.829045	1.001229
421.208047	1.001571
421.586988	1.002146
421.965867	1.000166
422.344686	1.000642
422.723444	1.000652
423.102141	1.000801
423.480777	1.001069
423.859352	1.000958
424.237866	1.000001
424.616319	1.000115
424.994712	1.001748
425.373044	1.000969
425.751314	1.001154
426.129524	1.001087
426.507673	1.001332
426.885762	1.001933
427.263789	1.001234
427.641756	1.000962
428.019662	1.001301
428.397508	1.000802
428.775292	0.999577
429.153016	1.000293
429.530679	1.001072
429.908282	1.001470
430.285824	1.000007
430.663305	1.000337
431.040726	1.001122
431.418086	1.001717
431.795385	1.001635
432.172624	1.000723
432.549802	1.001213
432.926920	1.000310
433.303977	1.001088
433.680974	1.001155
434.057910	1.000713
434.434786	1.001177
434.811601	1.000055
435.188355	1.000713
435.565050	1.000058
435.941683	1.000775
436.318257	1.001765
436.694770	1.000126
437.071222	0.999859
437.447614	1.000804
437.823946	1.000971
438.200218	1.000816
438.576429	1.001641
438.952580	1.001914
439.328670	1.000650
439.704700	1.000847
440.080670	1.001930
440.456580	1.000359
440.832429	1.000138
441.208218	1.001098
441.583947	1.001469
441.959616	1.001448
442.335224	1.001183
442.710773	1.002309
443.086261	1.000727
443.461689	1.000643
443.837057	1.000443
444.212365	1.000801
444.587612	1.000867
444.962800	1.000107
445.337927	1.001004
445.712995	1.001334
446.088002	1.001247
446.462949	1.001953
446.837837	1.000503
447.212664	1.001329
447.587431	1.000840
447.962139	1.000719
448.336786	1.001119
448.711374	1.001581
449.085901	1.000508
449.460369	1.001205
449.834776	1.001056
450.209124	1.001052
450.583412	1.001494
450.957640	1.000531
451.331808	1.001121
451.705917	1.001033
452.079965	1.001061
452.453954	1.001474
452.827883	1.001190
453.201752	1.000692
453.575562	1.001717
453.949311	1.002037
454.323001	1.000903
454.696632	1.000892
455.070202	1.000966
455.443713	1.000281
455.817164	1.001758
456.190556	1.001243
456.563888	1.001082
456.937160	1.002080
457.310373	1.001013
457.683526	1.000399
458.056619	1.000898
458.429653	1.001597
458.802628	1.000880
459.175542	1.001064
459.548398	1.001680
459.921194	1.000749
460.293930	1.000931
460.666607	1.001085
461.039224	0.999619
461.411782	1.000681
461.784280	1.000224
462.156719	1.001485
462.529099	1.001582
462.901419	1.001767
463.273680	1.001240
463.645882	1.000827
464.018024	1.001668
464.390106	1.001193
464.762130	1.002019
465.134094	1.001104
465.505999	1.001068
465.877845	1.001208
466.249631	1.001334
466.621358	1.001174
466.993026	1.000976
467.364634	1.001424
467.736184	1.001708
468.107674	1.001238
468.479105	1.000791
468.850477	1.001587
469.221790	1.001867
469.593043	1.001482
469.964238	1.002801
470.335373	1.001311
470.706449	1.001775
471.077467	1.001310
471.448425	1.001446
471.819324	1.001483
472.190164	1.001383
472.560945	1.001000
472.931667	1.001717
473.302330	1.001087
473.672934	1.001675
474.043479	1.001689
474.413965	1.000636
474.784393	1.001600
475.154761	1.000505
475.525070	1.000646
475.895321	1.001751
476.265513	1.000943
476.635645	1.001146
477.005719	1.001582
477.375734	1.001646
477.745691	1.001072
478.115588	1.001343
478.485427	1.001601
478.855207	1.000988
479.224928	1.001202
479.594591	1.001341
479.964194	1.001365
480.333739	1.001783
480.703226	1.001651
481.072653	1.002385
481.442022	1.001937
481.811333	1.001355
482.180584	1.001714
482.549777	1.001094
482.918912	1.001334
483.287988	1.001294
483.657005	1.001497
484.025964	1.002083
484.394864	1.001951
484.763706	1.001480
485.132489	1.001357
485.501213	1.001494
485.869879	1.002027
486.238487	1.001851
486.607036	1.002006
486.975527	1.000824
487.343959	1.001537
487.712333	1.001171
488.080648	1.001204
488.448905	1.001316
488.817104	1.001896
489.185244	1.001530
489.553326	1.001681
489.921350	1.000812
490.289315	1.001653
490.657222	1.001228
491.025070	1.001848
491.392861	1.001530
491.760593	1.001683
492.128267	1.001547
492.495883	1.001153
492.863440	1.001509
493.230939	1.001354
493.598380	1.001264
493.965763	1.001133
494.333088	1.001922
494.700354	1.001334
495.067563	1.001045
495.434713	1.001153
495.801805	1.001803
496.168839	1.001238
496.535815	1.000932
496.902733	1.001336
497.269593	1.001447
497.636395	1.001593
498.003139	1.001363
498.369825	1.001459
498.736453	1.001632
499.103023	1.000639
499.469535	1.000826
499.835989	1.001103
500.202385	1.001071
500.568723	1.001700
500.935003	1.001560
501.301226	1.002107
501.667390	1.000883
502.033497	1.001423
502.399546	1.001595
502.765537	1.001158
503.131470	1.001576
503.497345	1.001176
503.863163	1.001740
504.228923	1.001434
504.594625	1.001468
504.960269	1.001733
505.325856	1.001732
505.691385	1.000963
506.056856	1.001230
506.422270	1.001286
506.787625	1.002096
507.152924	1.001801
507.518164	1.000795
507.883347	1.000899
508.248472	1.001031
508.613540	1.000969
508.978550	1.001308
509.343503	1.000813
509.708398	1.001257
510.073236	1.001546
510.438016	1.001309
510.802738	1.001023
511.167403	1.000685
511.532010	1.001042
511.896561	1.001027
512.261053	1.002251
512.625488	1.001162
512.989866	1.001876
513.354186	1.001002
513.718449	1.001723
514.082655	1.000842
514.446803	1.001330
514.810894	1.001313
515.174927	1.001369
515.538904	1.001115
515.902822	1.001313
516.266684	1.001398
516.630488	1.002465
516.994235	1.001419
517.357925	1.000969
517.721558	1.001403
518.085133	1.000659
518.448651	1.001810
518.812112	1.001450
519.175516	1.001462
519.538863	1.001216
519.902152	1.001061
520.265385	1.000987
520.628560	1.001511
520.991678	1.001535
521.354739	1.002049
521.717743	1.001543
522.080690	1.001756
522.443580	1.001361
522.806413	1.001514
523.169189	1.000635
523.531908	1.000795
523.894569	1.001897
524.257174	1.001397
524.619722	1.001742
524.982213	1.001089
525.344647	1.001724
525.707025	1.001454
526.069345	1.000944
526.431608	1.001396
526.793815	1.001647
527.155964	1.001996
527.518057	1.002100
527.880093	1.001447
528.242072	1.001345
528.603995	1.000933
528.965860	1.002282
529.327669	1.001569
529.689421	1.001412
530.051117	1.001580
530.412755	1.001536
530.774337	1.001744
531.135862	1.001825
531.497331	1.001538
531.858743	1.001474
532.220098	1.001391
532.581396	1.001951
532.942638	1.001977
533.303824	1.001634
533.664953	1.001917
534.026025	1.001614
534.387040	1.001459
534.747999	1.001949
535.108902	1.001812
535.469748	1.001381
535.830537	1.001622
536.191270	1.001144
536.551947	1.001052
536.912567	1.001221
537.273131	1.002232
537.633638	1.000706
537.994089	1.001747
538.354483	1.001829
538.714821	1.001995
539.075103	1.001227
539.435328	1.001380
539.795497	1.001496
540.155609	1.000892
540.515665	1.001481
540.875665	1.001876
541.235609	1.001310
541.595496	1.001602
541.955328	1.001063
542.315102	1.001946
542.674821	1.001232
543.034483	1.000818
543.394090	1.000515
543.753640	1.001667
544.113134	1.001358
544.472571	1.001688
544.831953	1.001841
545.191278	1.001177
545.550548	1.002029
545.909761	1.000697
546.268918	1.001616
546.628019	1.001294
546.987064	1.001362
547.346053	1.001543
547.704986	1.001302
548.063863	1.001664
548.422684	1.001640
548.781449	1.001706
549.140158	1.001004
549.498811	1.001435
549.857408	1.001345
550.215949	1.001663
550.574434	1.000957
550.932864	1.000992
551.291237	1.001881
551.649555	1.001650
552.007817	1.001498
552.366022	1.000764
552.724173	1.001955
553.082267	1.001499
553.440305	1.001439
553.798288	1.001956
554.156215	1.001216
554.514086	1.001631
554.871902	1.001519
555.229661	1.001671
555.587365	1.001523
555.945014	1.002150
556.302606	1.001673
556.660143	1.001537
557.017625	1.000622
557.375050	1.001229
557.732421	1.001145
558.089735	1.001625
558.446994	1.002408
558.804197	1.001999
559.161345	1.002311
559.518437	1.002229
559.875474	1.000942
560.232455	1.001727
560.589381	1.001833
560.946251	1.000302
561.303065	1.001423
561.659825	1.001390
562.016528	1.001550
562.373177	1.001536
562.729770	1.001161
563.086307	1.001741
563.442789	1.001844
563.799216	1.001299
564.155587	1.001429
564.511904	1.001010
564.868164	1.001060
565.224370	1.001501
565.580520	1.002051
565.936615	1.001655
566.292654	1.001272
566.648638	1.001448
567.004567	1.001138
567.360441	1.001771
567.716260	1.001867
568.072023	1.001391
568.427732	1.001695
568.783385	1.001583
569.138982	1.001868
569.494525	1.001302
569.850013	1.001612
570.205445	1.001368
570.560823	1.001834
570.916145	1.001603
571.271412	1.001892
571.626625	1.001548
571.981782	1.000776
572.336884	1.001990
572.691931	1.001512
573.046923	1.001101
573.401860	1.001194
573.756743	1.001543
574.111570	1.001271
574.466342	1.001735
574.821059	1.001540
575.175722	1.001101
575.530330	1.001816
575.884882	1.001300
576.239380	1.002563
576.593823	1.001093
576.948211	1.000675
577.302544	1.001244
577.656823	1.001156
578.011047	1.001795
578.365216	1.001340
578.719330	1.001384
579.073389	1.001300
579.427394	1.001606
579.781344	1.001524
580.135239	1.001928
580.489080	1.002046
580.842866	1.001940
581.196597	1.000735
581.550273	1.001216
581.903895	1.001427
582.257463	1.001721
582.610975	1.001084
582.964434	1.001066
583.317837	1.002517
583.671186	1.001751
584.024481	1.000857
584.377721	1.001125
584.730906	1.001344
585.084037	1.000853
585.437113	1.001943
585.790135	1.001099
586.143103	1.000488
586.496016	1.001625
586.848874	1.001004
587.201679	1.001312
587.554428	1.001326
587.907124	1.001435
588.259765	1.001119
588.612352	1.002007
588.964884	1.001609
589.317362	1.001414
589.669786	1.001181
590.022155	1.001515
590.374470	1.000992
590.726731	1.000823
591.078937	1.000561
591.431090	1.000982
591.783188	1.000727
592.135232	1.001700
592.487222	1.001578
592.839157	1.000856
593.191038	1.001690
593.542866	1.001074
593.894639	1.002418
594.246358	1.000620
594.598022	1.000909
594.949633	1.001986
595.301190	1.000817
595.652692	1.001206
596.004141	1.001791
596.355535	1.001417
596.706876	1.001070
597.058162	1.001299
597.409395	1.001390
597.760573	1.001407
598.111698	1.001166
598.462768	1.001266
598.813785	1.000751
599.164748	1.001329
599.515657	1.000589
599.866511	1.001098
600.217312	1.001213
600.568060	1.001079
600.918753	1.001928
601.269392	1.001212
601.619978	1.001314
601.970510	1.001171
602.320988	1.001798
602.671412	1.000678
603.021783	1.001780
603.372100	1.002113
603.722363	1.001625
604.072572	1.001741
604.422728	1.001576
604.772830	1.001285
605.122878	1.000947
605.472872	1.001671
605.822813	1.000013
606.172701	1.001435
606.522534	1.001502
606.872314	1.001339
607.222041	1.000631
607.571714	1.001994
607.921333	1.000979
608.270899	1.001195
608.620411	1.001559
608.969870	1.001698
609.319276	1.000909
609.668627	1.001714
610.017926	1.000360
610.367171	1.000443
610.716362	1.001065
611.065500	1.000792
611.414585	1.000597
611.763616	1.001238
612.112594	1.000768
612.461518	1.001061
612.810389	1.000845
613.159207	1.001269
613.507971	1.001163
613.856682	1.001105
614.205340	1.001100
614.553945	1.000307
614.902496	1.001186
615.250994	1.000626
615.599439	1.001572
615.947830	1.001646
616.296169	1.000990
616.644454	1.000609
616.992686	1.001888
617.340864	1.000425
617.688990	1.001126
618.037063	1.001380
618.385082	1.000907
618.733048	1.001566
619.080961	1.001595
619.428821	1.001652
619.776628	1.000970
620.124382	1.001246
620.472083	1.001024
620.819731	1.001573
621.167326	1.000841
621.514868	1.001367
621.862357	1.000955
622.209793	1.001480
622.557176	0.999872
622.904506	1.001348
623.251783	1.001177
623.599007	1.001143
623.946179	1.001107
624.293297	1.001137
624.640363	1.001224
624.987376	1.000101
625.334336	1.001171
625.681243	1.001095
626.028097	1.001703
626.374899	1.001784
626.721647	1.001088
627.068343	1.001784
627.414987	1.001350
627.761577	1.000888
628.108115	1.001072
628.454600	1.001629
628.801032	1.001039
629.147412	1.001261
629.493739	1.000602
629.840014	1.001072
630.186236	1.001122
630.532405	1.001472
630.878521	1.000673
631.224585	1.000806
631.570597	1.000708
631.916556	1.000720
632.262462	1.001296
632.608316	1.001375
632.954117	1.000733
633.299866	1.000675
633.645562	1.000999
633.991206	1.001602
634.336797	1.001001
634.682336	1.001402
635.027823	1.001428
635.373257	1.001341
635.718639	1.001877
636.063968	1.000513
636.409245	1.000672
636.754470	1.001600
637.099642	1.001187
637.444762	1.001159
637.789829	1.001028
638.134845	1.000451
638.479808	1.001177
638.824719	1.001847
639.169577	1.000752
639.514383	1.000752
639.859137	1.000484
640.203839	1.001551
640.548489	1.000351
640.893086	1.001263
641.237632	1.001733
641.582125	1.000543
641.926566	1.000805
642.270955	1.001126
642.615292	1.001966
642.959576	1.000873
643.303809	1.001008
643.647990	1.000458
643.992118	1.001019
644.336195	1.001620
644.680219	1.001119
645.024192	1.000618
645.368112	1.000811
645.711981	1.001169
646.055797	1.001278
646.399562	1.000580
646.743274	1.000195
647.086935	1.000615
647.430544	0.999974
647.774101	1.000768
648.117606	1.000536
648.461059	1.001196
648.804460	1.000513
649.147810	1.000598
649.491108	1.001470
649.834354	1.000533
650.177548	1.001855
650.520690	1.001236
650.863781	1.000369
651.206820	1.001449
651.549807	1.001340
651.892742	1.001488
652.235626	1.000407
652.578458	1.000823
652.921238	1.000115
653.263967	1.001415
653.606644	1.001228
653.949269	1.000840
654.291843	1.000560
654.634365	1.000547
654.976836	1.001132
655.319255	1.000629
655.661622	1.001093
656.003938	1.000920
656.346203	1.000966
656.688416	1.000474
657.030577	1.001685
657.372687	1.000493
657.714746	1.000357
658.056753	1.001168
658.398708	1.000426
658.740612	1.001439
659.082465	1.001348
659.424266	1.001107
659.766016	1.000181
660.107715	1.000459
660.449362	0.999985
660.790958	1.000447
661.132503	0.999541
661.473996	1.000753
661.815438	1.000474
662.156829	0.999754
662.498168	1.001020
662.839456	0.999864
663.180693	1.001049
663.521879	1.001047
663.863013	1.000517
664.204097	1.001330
664.545129	1.000586
664.886110	1.000233
665.227040	0.999613
665.567918	1.000405
665.908746	1.000698
666.249522	1.000063
666.590248	1.000065
666.930922	1.000574
667.271545	1.000735
667.612118	1.001344
667.952639	1.000342
668.293109	1.000507
668.633528	1.000248
668.973896	1.000833
669.314213	1.000449
669.654480	1.000693
669.994695	1.000397
670.334859	1.000473
670.674973	1.000970
671.015035	1.001162
671.355047	1.000260
671.695008	1.000522
672.034918	1.000429
672.374777	1.001049
672.714585	1.000506
673.054342	1.000910
673.394049	1.000691
673.733705	1.000004
674.073310	1.000703
674.412864	1.000974
674.752368	1.000357
675.091820	1.001486
675.431223	1.000207
675.770574	1.000365
676.109875	1.000843
676.449125	1.000548
676.788324	1.000186
677.127473	1.001361
677.466571	1.001210
677.805619	1.000222
678.144616	1.000899
678.483562	1.000469
678.822458	1.001186
679.161303	1.001414
679.500098	1.000844
679.838842	1.000946
680.177535	1.001579
680.516179	1.001075
680.854771	1.000374
681.193314	1.000647
681.531805	1.000013
681.870247	0.999570
682.208638	1.000456
682.546978	1.000102
682.885268	1.000732
683.223508	1.001246
683.561697	0.999901
683.899836	1.000413
684.237925	1.001457
684.575963	1.000265
684.913951	1.000524
685.251889	1.000941
685.589776	1.000243
685.927614	1.000178
686.265401	1.001084
686.603137	0.999920
686.940824	0.999213
687.278460	1.000161
687.616046	1.000272
687.953582	1.000123
688.291068	1.000734
688.628504	1.001180
688.965889	0.999576
689.303224	1.000206
689.640510	1.000193
689.977745	1.001197
690.314930	1.001623
690.652065	1.000039
690.989150	1.000070
691.326185	1.000238
691.663170	1.000304
692.000105	1.000661
692.336990	1.000650
692.673825	1.001303
693.010610	1.000746
693.347345	0.999586
693.684030	1.000007
694.020665	1.000108
694.357251	0.999810
694.693786	1.000276
695.030272	1.001650
695.366707	0.999603
695.703093	0.999650
696.039429	1.000402
696.375716	0.999685
696.711952	0.999916
697.048139	1.000404
697.384276	1.000045
697.720363	0.998917
698.056400	1.000335
698.392388	0.999594
698.728326	1.000486
699.064214	1.001631
699.400053	1.000963
699.735842	1.001087
700.071581	1.000790
700.407270	0.999588
700.742910	1.000348
701.078501	1.001119
701.414042	1.001470
701.749533	0.999185
702.084974	0.999707
702.420366	0.999902
702.755709	0.999565
703.091002	1.000782
703.426246	1.000522
703.761440	1.000903
704.096584	1.000655
704.431679	0.999925
704.766725	0.999414
705.101721	0.999598
705.436668	1.000396
705.771565	0.999881
706.106413	1.000612
706.441212	1.000096
706.775961	0.999362
707.110661	1.000944
707.445311	0.999438
707.779913	1.000888
708.114465	1.001201
708.448967	0.999926
708.783421	0.999653
709.117825	0.999929
709.452180	1.001007
709.786485	0.999754
710.120742	0.999301
710.454949	0.999669
710.789107	0.999620
711.123216	1.000259
711.457275	1.000964
711.791286	0.999628
712.125247	1.000609
712.459159	0.999818
712.793023	1.001050
713.126837	1.000792
713.460602	0.999629
713.794318	1.001125
714.127985	0.999233
714.461602	1.000909
714.795171	0.999209
715.128691	0.999757
715.462162	1.000188
715.795584	1.000237
716.128957	1.000241
716.462281	0.999798
716.795556	1.000542
717.128782	0.999314
717.461960	1.000584
717.795088	0.999270
718.128167	1.001103
718.461198	0.999718
718.794180	0.999891
719.127113	1.000299
719.459997	0.999790
719.792833	1.000268
720.125619	0.999771
720.458357	1.000612
720.791046	1.001327
721.123686	1.000545
721.456278	1.000201
721.788821	0.998602
722.121315	0.999526
722.453761	1.000015
722.786158	0.999998
723.118506	1.001042
723.450805	1.000651
723.783056	0.999618
724.115259	0.999353
724.447412	1.000494
724.779518	1.000160
725.111574	1.000107
725.443582	0.999662
725.775542	0.999851
726.107453	1.000053
726.439315	1.000386
726.771129	0.999445
727.102895	0.999722
727.434612	0.998785
727.766281	0.999426
728.097901	0.998846
728.429473	1.001260
728.760996	0.999348
729.092471	0.998427
729.423897	1.000415
729.755276	0.999920
730.086606	1.000015
730.417887	1.000025
730.749120	1.000795
731.080305	0.999775
731.411442	0.999518
731.742530	1.000524
732.073570	1.000325
732.404562	1.000119
732.735506	1.000526
733.066401	0.999635
733.397249	1.000957
733.728048	1.000272
734.058798	1.000109
734.389501	0.999805
734.720156	0.998502
735.050762	1.001064
735.381320	0.999886
735.711831	1.001445
736.042293	1.000566
736.372707	1.000121
736.703073	0.999936
737.033391	1.000978
737.363661	1.000591
737.693883	1.000007
738.024056	1.000287
738.354182	1.000507
738.684260	1.000194
739.014290	0.999732
739.344272	0.999573
739.674207	0.999497
740.004093	1.000042
740.333931	1.000090
740.663722	0.999601
740.993464	1.000103
741.323159	0.999826
741.652806	1.000610
741.982405	1.001223
742.311956	0.999197
742.641460	0.999729
742.970915	1.000292
743.300323	1.000171
743.629683	1.000684
743.958996	1.000389
744.288260	0.999556
744.617477	1.000802
744.946647	0.999728
745.275768	0.999204
745.604842	1.000100
745.933869	1.000462
746.262847	0.999582
746.591778	0.998854
746.920662	1.000067
747.249498	0.999877
747.578286	0.999505
747.907027	0.998903
748.235720	1.000868
748.564365	0.999231
748.892963	1.000390
749.221514	0.999366
749.550017	0.999318
749.878473	0.998101
750.206881	0.999836
750.535242	0.999671
750.863555	1.000524
751.191821	1.000878
751.520039	1.000185
751.848210	1.000065
752.176334	0.999582
752.504411	1.000989
752.832440	1.000524
753.160421	0.999851
753.488356	1.000602
753.816243	1.001394
754.144082	1.000052
754.471875	1.000317
754.799620	1.000358
755.127318	1.000161
755.454969	0.999654
755.782572	1.000463
756.110129	1.000045
756.437638	0.999572
756.765100	0.999809
757.092515	0.999510
757.419882	1.000316
757.747203	1.000409
758.074477	0.999040
758.401703	0.999885
758.728882	0.998796
759.056014	0.999491
759.383099	0.998654
759.710138	0.998531
760.037129	1.000186
760.364073	1.000678
760.690970	0.999544
761.017820	1.000826
761.344623	1.000177
761.671379	1.000174
761.998088	0.999478
762.324751	1.000787
762.651366	1.000798
762.977935	0.998603
763.304456	0.999203
763.630931	0.998856
763.957359	1.000064
764.283740	1.001064
764.610074	1.000087
764.936362	1.000319
765.262602	0.998913
765.588796	1.000480
765.914943	1.001274
766.241044	0.999825
766.567097	1.000764
766.893104	0.999724
767.219064	0.999169
767.544978	0.998967
767.870845	1.001259
768.196665	1.000389
768.522438	0.999661
768.848165	0.999782
769.173846	0.999420
769.499479	0.999702
769.825066	1.000202
770.150607	1.000797
770.476101	0.999979
770.801548	0.999451
771.126949	0.999979
771.452303	0.998775
771.777611	0.999817
772.102872	1.000885
772.428087	0.998888
772.753256	1.000108
773.078378	1.000564
773.403453	1.000040
773.728482	1.000788
774.053465	1.000450
774.378401	1.001209
774.703291	0.999742
775.028135	1.000784
775.352932	0.999842
775.677683	0.999215
776.002388	0.999374
776.327046	0.998806
776.651658	1.000560
776.976224	0.999426
777.300743	0.999621
777.625216	1.000451
777.949643	0.999706
778.274024	1.000567
778.598359	1.000247
778.922647	1.000567
779.246889	1.000183
779.571086	1.000953
779.895236	0.999670
780.219339	1.000141
780.543397	1.000830
780.867409	1.000397
781.191374	1.000520
781.515294	0.999581
781.839167	0.999220
782.162995	1.000236
782.486776	1.000321
782.810511	1.000445
783.134201	1.000488
783.457844	0.998893
783.781441	0.999791
784.104993	1.000008
784.428498	1.000185
784.751958	1.000028
785.075372	1.000960
785.398739	1.000298
785.722061	1.001291
786.045337	1.000607
786.368568	1.000797
786.691752	1.001182
787.014891	0.999470
787.337983	1.000271
787.661030	0.999445
787.984031	1.000833
788.306987	1.000606
788.629897	1.000641
788.952760	0.999042
789.275579	1.000362
789.598351	0.998562
789.921078	1.001221
790.243759	0.999767
790.566395	0.999868
790.888984	1.000097
791.211529	1.000071
791.534027	1.000830
791.856480	1.000131
792.178888	0.999674
792.501249	1.000471
792.823566	1.000452
793.145836	0.999996
793.468062	0.999737
793.790241	0.998711
794.112375	1.000886
794.434464	0.998395
794.756507	0.999040
795.078505	1.000849
795.400457	1.000842
795.722364	1.000174
796.044226	0.999681
796.366042	0.999580
796.687812	0.999530
797.009538	1.000193
797.331218	0.999811
797.652852	1.001210
797.974442	1.000692
798.295986	0.999905
798.617484	1.000926
798.938938	1.000748
799.260346	0.999566
799.581709	1.001335
799.903026	1.001612
800.224299	0.999640
800.545526	1.000553
800.866708	0.999775
801.187845	1.000662
801.508936	1.001275
801.829983	1.000539
802.150984	0.999445
802.471940	1.000410
802.792851	1.000209
803.113717	1.000789
803.434538	0.999813
803.755314	1.000417
804.076045	1.000054
804.396731	0.999597
804.717372	1.000446
805.037967	1.000306
805.358518	1.000426
805.679024	1.001143
805.999485	1.000353
806.319901	1.002080
806.640272	1.000121
806.960598	0.999565
807.280879	1.000076
807.601115	1.001376
807.921306	0.999990
808.241453	0.999230
808.561554	0.998988
808.881611	0.999591
809.201623	0.999534
809.521590	1.000276
809.841513	0.999043
810.161390	0.999963
810.481223	1.000157
810.801011	0.999924
811.120755	1.000844
811.440453	1.000618
811.760107	0.998534
812.079716	0.999382
812.399281	0.999289
812.718801	0.999953
813.038276	1.000329
813.357707	0.999438
813.677093	0.999116
813.996434	1.000734
814.315731	1.000913
814.634983	0.999502
814.954191	0.998974
815.273354	1.000766
815.592473	0.998567
815.911547	1.000031
816.230577	0.999646
816.549562	1.000822
816.868502	1.000934
817.187399	1.000070
817.506250	1.000268
817.825058	0.999551
818.143821	1.000430
818.462539	1.000088
818.781213	1.000265
819.099843	0.998918
819.418429	0.999948
819.736970	1.000082
820.055466	0.999100
820.373919	0.999747
820.692327	0.999876
821.010691	0.999185
821.329011	1.000373
821.647286	0.998859
821.965517	0.998492
822.283704	0.999568
822.601847	0.999813
822.919945	0.999866
823.237999	1.001025
823.556010	0.999913
823.873976	1.000512
824.191897	0.999975
824.509775	1.000376
824.827609	1.000123
825.145398	0.999970
825.463144	1.000180
825.780845	1.000486
826.098502	1.000993
826.416116	0.998830
826.733685	0.999819
827.051210	0.999585
827.368692	0.999851
827.686129	0.999950
828.003522	1.000319
828.320872	0.998830
828.638177	1.000402
828.955439	1.000020
829.272656	1.000801
829.589830	1.000548
829.906960	1.000345
830.224046	0.999297
830.541088	0.999197
830.858086	1.000376
831.175041	0.999207
831.491952	1.000443
831.808819	1.000334
832.125642	1.001697
832.442421	0.998448
832.759157	1.000205
833.075849	1.001754
833.392497	0.999306
833.709101	0.998944
834.025662	1.000267
834.342179	1.000484
834.658653	1.000352
834.975083	1.000545
835.291469	0.999661
835.607811	1.000305
835.924110	0.998785
836.240366	1.000380
836.556578	1.001673
836.872746	1.001056
837.188871	0.999192
837.504952	0.999264
837.820990	1.000074
838.136984	0.999760
838.452935	1.000667
838.768842	1.000629
839.084706	0.999817
839.400526	0.999344
839.716303	0.999393
840.032037	0.999669
840.347727	0.999104
840.663373	1.000934
840.978977	0.999821
841.294537	1.000188
841.610054	1.000552
841.925527	1.000947
842.240957	0.999994
842.556344	1.001004
842.871687	1.000511
843.186987	1.000518
843.502244	1.000154
843.817458	0.999579
844.132629	0.998880
844.447756	1.001258
844.762840	1.000541
845.077881	0.999364
845.392879	0.999512
845.707833	1.000456
846.022745	1.001161
846.337613	1.000907
846.652438	1.001158
846.967221	0.999645
847.281960	0.999897
847.596656	1.000707
847.911309	1.000388
848.225919	1.000558
848.540485	0.999459
848.855009	1.000385
849.169490	0.999793
849.483928	1.000530
849.798323	1.000229
850.112675	1.000032
850.426984	1.001024
850.741251	1.000371
851.055474	1.000340
851.369654	0.999805
851.683792	1.001083
851.997887	1.000951
852.311938	1.001280
852.625947	1.001642
852.939914	1.000881
853.253837	0.999270
853.567718	1.000271
853.881555	1.000927
854.195350	0.999670
854.509103	0.999744
854.822812	1.000763
855.136479	0.999181
855.450103	1.000253
855.763685	1.000618
856.077224	0.999350
856.390720	0.999913
856.704173	1.000663
857.017584	1.001273
857.330953	0.999521
857.644278	1.000947
857.957561	0.999754
858.270802	0.999109
858.584000	1.000106
858.897155	0.999837
859.210268	1.000637
859.523339	0.998941
859.836367	1.000171
860.149352	0.999828
860.462295	0.997425
860.775195	1.000264
861.088054	0.999819
861.400869	0.999151
861.713642	1.000878
862.026373	0.999525
862.339062	0.999556
862.651708	1.000340
862.964312	1.000046
863.276873	1.000564
863.589392	0.999970
863.901869	1.000847
864.214303	1.000795
864.526696	1.000782
864.839045	1.000481
865.151353	1.000079
865.463619	1.001218
865.775842	1.000264
866.088023	0.999320
866.400162	1.000208
866.712258	1.000174
867.024313	0.999888
867.336325	0.999896
867.648296	0.999158
867.960224	1.001187
868.272110	1.000147
868.583954	0.999651
868.895755	1.000287
869.207515	0.999701
869.519233	1.000231
869.830909	1.000631
870.142542	0.999794
870.454134	0.999652
870.765684	1.000816
871.077191	0.998867
871.388657	1.001110
871.700081	0.999490
872.011463	1.000423
872.322803	1.000401
872.634101	1.001041
872.945357	1.001114
873.256571	1.000611
873.567744	0.999363
873.878874	0.999282
874.189963	0.999173
874.501010	0.999391
874.812015	0.999658
875.122979	1.000795
875.433900	1.001081
875.744780	1.000518
876.055618	1.000015
876.366415	1.000955
876.677169	1.000464
876.987882	1.000141
877.298554	1.000161
877.609183	1.000330
877.919771	1.000150
878.230317	0.999354
878.540822	1.000577
878.851285	1.000298
879.161707	1.000358
879.472087	1.000693
879.782425	1.001132
880.092722	0.999914
880.402977	0.998729
880.713191	1.000189
881.023363	1.000813
881.333494	0.999249
881.643583	1.000640
881.953631	1.000093
882.263637	1.000010
882.573602	1.000524
882.883526	1.000187
883.193408	1.001209
883.503248	1.000380
883.813048	1.000279
884.122806	0.999833
884.432522	1.000019
884.742197	1.000402
885.051831	1.000812
885.361424	1.000004
885.670975	0.999458
885.980485	0.999808
886.289954	0.999915
886.599382	1.000475
886.908768	1.000592
887.218113	0.999919
887.527417	0.999177
887.836680	1.001418
888.145901	1.000557
888.455082	1.000502
888.764221	1.000545
889.073319	1.000040
889.382376	1.000511
889.691392	1.000405
890.000366	1.000510
890.309300	1.001203
890.618193	1.000101
890.927044	0.999767
891.235855	1.000532
891.544625	0.999202
891.853353	1.000724
892.162041	1.000489
892.470687	1.001131
892.779293	0.999032
893.087858	1.000320
893.396381	1.000353
893.704864	1.000882
894.013306	1.000853
894.321707	1.000008
894.630068	1.000801
894.938387	0.999997
895.246665	0.999890
895.554903	1.000154
895.863100	1.000683
896.171256	1.000215
896.479371	1.000604
896.787446	1.000033
897.095480	1.000110
897.403473	1.000960
897.711425	0.999343
898.019336	1.001242
898.327207	0.998648
898.635038	1.000741
898.942827	0.999568
899.250576	0.999942
899.558284	0.999164
899.865952	0.999527
900.173579	0.999191
900.481165	1.001388
900.788711	1.001186
901.096216	1.000122
901.403681	0.999455
901.711105	1.001334
902.018489	1.001558
902.325832	1.000496
902.633135	1.000483
902.940397	0.999898
903.247619	1.001314
903.554800	0.999349
903.861941	0.999723
904.169041	1.001017
904.476101	1.000639
904.783121	0.999952
905.090100	1.000666
905.397039	1.000719
905.703938	1.001047
906.010796	1.000576
906.317614	1.000224
906.624391	0.999001
906.931129	0.999899
907.237826	0.999964
907.544483	1.001052
907.851099	0.999158
908.157675	1.000943
908.464211	1.000334
908.770707	1.000636
909.077163	0.998871
909.383578	0.999515
909.689954	1.000211
909.996289	0.998951
910.302584	1.000878
910.608839	1.000807
910.915054	0.999598
911.221229	0.999900
911.527363	1.000180
911.833458	0.999849
912.139513	1.000290
912.445527	0.998833
912.751502	0.998832
913.057436	1.000517
913.363331	0.999773
913.669186	1.000434
913.975000	0.999550
914.280775	1.000540
914.586510	1.000099
914.892205	0.998936
915.197859	1.000619
915.503475	0.999450
915.809050	0.999543
916.114585	0.999128
916.420081	0.999902
916.725536	0.999987
917.030952	1.000334
917.336328	0.999409
917.641665	1.000526
917.946961	0.999749
918.252218	1.001123
918.557435	0.999877
918.862612	1.000790
919.167750	1.000872
919.472848	1.000096
919.777906	0.999382
920.082925	1.000779
920.387904	0.999933
920.692843	1.000824
920.997743	0.998976
921.302603	1.000248
921.607423	0.999613
921.912204	1.000851
922.216946	0.999135
922.521647	0.999656
922.826310	1.000791
923.130932	1.000259
923.435516	0.999559
923.740059	1.000371
924.044564	0.999406
924.349028	1.000793
924.653454	1.000275
924.957840	1.001455
925.262186	0.999314
925.566493	0.999070
925.870761	0.999557
926.174989	1.000725
926.479178	1.002167
926.783328	0.999391
927.087438	0.999998
927.391509	0.999957
927.695541	1.001190
927.999533	0.999339
928.303486	0.999082
928.607400	1.000716
928.911275	0.999320
929.215110	0.999179
929.518906	1.001417
929.822663	1.000241
930.126381	1.001045
930.430060	1.000475
930.733699	0.999229
931.037299	0.998640
931.340861	1.002303
931.644383	0.999666
931.947866	0.999891
932.251309	1.000241
932.554714	1.000273
932.858080	1.000518
933.161407	0.999658
933.464694	1.000147
933.767943	0.998982
934.071153	1.000412
934.374323	1.001158
934.677455	0.998916
934.980548	1.000993
935.283602	1.000445
935.586617	1.001039
935.889593	0.999855
936.192530	1.000140
936.495428	1.000235
936.798287	0.999293
937.101108	1.000389
937.403890	0.999297
937.706632	1.001201
938.009336	1.000774
938.312002	1.000397
938.614628	1.001289
938.917216	1.001197
939.219765	0.999487
939.522275	1.001103
939.824747	1.000960
940.127179	1.000514
940.429573	1.000323
940.731929	0.999812
941.034246	1.000551
941.336524	0.999904
941.638763	1.000552
941.940964	0.999594
942.243126	0.999882
942.545250	1.000334
942.847335	1.000330
943.149381	1.000193
943.451389	0.999609
943.753359	0.999362
944.055290	1.001760
944.357182	1.000250
944.659036	0.998990
944.960851	0.999352
945.262628	1.000530
945.564367	1.001130
945.866067	1.000701
946.167729	1.000932
946.469352	1.000228
946.770937	0.998528
947.072484	1.000453
947.373992	1.000299
947.675462	0.999648
947.976893	0.999784
948.278286	0.999753
948.579641	1.001134
948.880958	0.999623
949.182236	1.000040
949.483476	1.001328
949.784678	0.999141
950.085841	0.999444
950.386967	0.999638
950.688054	1.000058
950.989103	1.000269
951.290114	0.998770
951.591087	1.000896
951.892021	1.000022
952.192917	1.000903
952.493776	1.001388
952.794596	0.999924
953.095378	0.999508
953.396122	0.999909
953.696828	0.998444
953.997496	1.000361
954.298126	1.001427
954.598718	1.000039
954.899272	1.000402
955.199788	0.998814
955.500266	1.000626
955.800706	1.000606
956.101108	1.000553
956.401472	0.999905
956.701798	1.001007
957.002087	1.000128
957.302337	0.999525
957.602550	1.000777
957.902724	0.999367
958.202861	1.001021
958.502960	1.000691
958.803022	0.998465
959.103045	1.001004
959.403031	1.000557
959.702979	1.000036
960.002889	0.998722
960.302762	0.998974
960.602596	0.999734
960.902393	0.999398
961.202153	0.999753
961.501875	1.000701
961.801559	0.999476
962.101205	0.999620
962.400814	0.999834
962.700385	1.000168
962.999918	0.999008
963.299414	0.999993
963.598873	0.999026
963.898293	1.000003
964.197677	0.999823
964.497022	1.000677
964.796331	1.000658
965.095601	1.000500
965.394835	0.999733
965.694030	1.000748
965.993189	1.000993
966.292309	0.999299
966.591393	1.000712
966.890439	1.000942
967.189447	0.999984
967.488419	1.000288
967.787353	0.999846
968.086249	1.000077
968.385108	1.000349
968.683930	1.000688
968.982714	1.000497
969.281462	1.000200
969.580172	0.999777
969.878844	0.999720
970.177480	0.999596
970.476078	1.000643
970.774639	1.001549
971.073162	1.000782
971.371649	1.001145
971.670098	0.999442
971.968510	1.001028
972.266885	0.998384
972.565223	0.999769
972.863524	0.999686
973.161788	1.000211
973.460014	1.001439
973.758204	0.999733
974.056356	0.999567
974.354471	0.999482
974.652550	1.000337
974.950591	1.000291
975.248595	0.999476
975.546563	0.999516
975.844493	1.001037
976.142386	0.999726
976.440243	1.001425
976.738062	1.000214
977.035845	1.000687
977.333590	0.999490
977.631299	1.000163
977.928971	0.999645
978.226606	1.000268
978.524204	0.999468
978.821765	1.001072
979.119290	0.999854
979.416777	0.998570
979.714228	1.000800
980.011642	0.999630
980.309020	1.001327
980.606360	0.999308
980.903664	1.000703
981.200931	0.999964
981.498162	0.998351
981.795356	0.999306
982.092513	0.998920
982.389633	1.001388
982.686717	0.998566
982.983764	1.000907
983.280775	0.999831
983.577749	1.000034
983.874686	1.000335
984.171587	0.999435
984.468451	1.000848
984.765279	1.000475
985.062070	0.999340
985.358824	1.000062
985.655543	0.999070
985.952224	1.000274
986.248869	0.999005
986.545478	1.000312
986.842050	1.001628
987.138586	0.999602
987.435086	0.999369
987.731549	1.002183
988.027975	1.000618
988.324366	0.999493
988.620719	1.001011
988.917037	0.998300
989.213318	0.999783
989.509563	0.999772
989.805772	1.001106
990.101944	0.999507
990.398080	0.998985
990.694180	1.000842
990.990244	0.999295
991.286271	0.999558
991.582262	0.999075
991.878217	0.998979
992.174136	1.000245
992.470019	1.001399
992.765865	0.999615
993.061676	1.001034
993.357450	1.000296
993.653188	0.999132
993.948890	0.998242
994.244556	1.000984
994.540186	0.998863
994.835780	0.998524
995.131337	0.999583
995.426859	0.999504
995.722345	1.001012
996.017795	1.000140
996.313208	0.999372
996.608586	0.999429
996.903928	0.999999
997.199234	0.999279
997.494504	1.000171
997.789738	1.000052
998.084936	0.999703
998.380099	1.001932
998.675225	1.000878
998.970316	1.000756
999.265371	1.000259
999.560390	1.000370
999.855373	1.001453
1000.150320	1.000717
1000.445232	0.999901
1000.740108	0.999268
1001.034948	0.999745
1001.329752	1.000684
1001.624521	0.999692
1001.919254	1.000054
1002.213951	1.000437
1002.508613	0.999158
1002.803239	1.000454
1003.097829	1.001106
1003.392384	1.000522
1003.686903	1.000181
1003.981386	0.999218
1004.275834	1.000946
1004.570246	0.999489
1004.864623	1.000485
1005.158964	1.000257
1005.453270	1.000466
1005.747540	0.998403
1006.041775	0.999960
1006.335974	1.000299
1006.630138	1.000265
1006.924266	1.001214
1007.218359	1.002340
1007.512416	0.999836
1007.806438	1.000815
1008.100425	1.001280
1008.394376	0.999430
1008.688292	0.999566
1008.982172	1.002076
1009.276017	1.001395
1009.569827	0.999380
1009.863602	1.001474
1010.157341	1.000669
1010.451045	1.001253
1010.744714	0.999576
1011.038347	1.000495
1011.331945	1.000360
1011.625508	0.998243
1011.919036	0.999451
1012.212528	1.000114
1012.505986	0.999512
1012.799408	1.000281
1013.092795	1.000098
1013.386147	0.999132
1013.679464	1.001444
1013.972745	1.000490
1014.265992	0.998359
1014.559204	0.999283
1014.852380	1.000040
1015.145521	1.000414
1015.438628	0.999215
1015.731699	1.000826
1016.024736	0.999494
1016.317737	1.000145
1016.610703	1.000048
1016.903635	1.000862
1017.196531	1.000692
1017.489393	1.001324
1017.782219	1.000334
1018.075011	1.000642
1018.367768	0.999994
1018.660490	0.999504
1018.953177	0.999504
1019.245829	0.999504
